timestamp,ax,ay,az
2026-01-28 16:40:42,1.389,-0.327,-10.5
2026-01-28 16:40:42,1.223,-0.261,-10.444
2026-01-28 16:40:42,1.423,-0.283,-10.41
2026-01-28 16:40:42,1.384,-0.264,-10.278
2026-01-28 16:40:42,1.289,-0.244,-10.347
2026-01-28 16:40:42,1.418,-0.21,-10.369
2026-01-28 16:40:42,1.233,-0.278,-10.452
2026-01-28 16:40:43,1.411,-0.261,-10.33
2026-01-28 16:40:43,1.411,-0.298,-10.398
2026-01-28 16:40:43,1.294,-0.281,-10.364
2026-01-28 16:40:43,1.316,-0.234,-10.322
2026-01-28 16:40:43,1.375,-0.264,-10.435
2026-01-28 16:40:43,1.362,-0.334,-10.391
2026-01-28 16:40:43,1.353,-0.303,-10.503
2026-01-28 16:40:43,1.438,-0.222,-10.352
2026-01-28 16:40:43,1.348,-0.256,-10.432
2026-01-28 16:40:43,1.396,-0.229,-10.381
2026-01-28 16:40:43,1.316,-0.249,-10.444
2026-01-28 16:40:43,1.357,-0.276,-10.422
2026-01-28 16:40:43,1.292,-0.295,-10.425
2026-01-28 16:40:43,1.411,-0.227,-10.354
2026-01-28 16:40:43,1.328,-0.227,-10.432
2026-01-28 16:40:43,1.226,-0.259,-10.356
2026-01-28 16:40:43,1.323,-0.22,-10.442
2026-01-28 16:40:43,1.389,-0.291,-10.491
2026-01-28 16:40:43,1.27,-0.298,-10.447
2026-01-28 16:40:43,1.421,-0.303,-10.41
2026-01-28 16:40:43,1.323,-0.237,-10.415
2026-01-28 16:40:43,1.353,-0.269,-10.366
2026-01-28 16:40:43,1.243,-0.251,-10.391
2026-01-28 16:40:43,1.27,-0.356,-10.364
2026-01-28 16:40:43,1.331,-0.322,-10.469
2026-01-28 16:40:43,1.296,-0.305,-10.334
2026-01-28 16:40:43,1.292,-0.33,-10.403
2026-01-28 16:40:43,1.301,-0.303,-10.359
2026-01-28 16:40:43,1.299,-0.269,-10.452
2026-01-28 16:40:43,1.384,-0.308,-10.356
2026-01-28 16:40:43,1.353,-0.227,-10.483
2026-01-28 16:40:43,1.343,-0.178,-10.447
2026-01-28 16:40:43,1.365,-0.239,-10.432
2026-01-28 16:40:43,1.428,-0.283,-10.405
2026-01-28 16:40:43,1.365,-0.264,-10.347
2026-01-28 16:40:43,1.299,-0.337,-10.483
2026-01-28 16:40:43,1.248,-0.266,-10.359
2026-01-28 16:40:43,1.379,-0.254,-10.312
2026-01-28 16:40:43,1.228,-0.305,-10.354
2026-01-28 16:40:43,1.37,-0.271,-10.432
2026-01-28 16:40:43,1.301,-0.278,-10.405
2026-01-28 16:40:43,1.316,-0.32,-10.454
2026-01-28 16:40:43,1.328,-0.261,-10.425
2026-01-28 16:40:43,1.313,-0.215,-10.413
2026-01-28 16:40:43,1.328,-0.227,-10.315
2026-01-28 16:40:43,1.399,-0.22,-10.381
2026-01-28 16:40:43,1.301,-0.281,-10.432
2026-01-28 16:40:43,1.35,-0.266,-10.432
2026-01-28 16:40:43,1.243,-0.317,-10.332
2026-01-28 16:40:43,1.323,-0.251,-10.452
2026-01-28 16:40:43,1.335,-0.286,-10.366
2026-01-28 16:40:43,1.377,-0.234,-10.461
2026-01-28 16:40:43,1.328,-0.254,-10.471
2026-01-28 16:40:43,1.313,-0.256,-10.364
2026-01-28 16:40:43,1.333,-0.276,-10.396
2026-01-28 16:40:43,1.384,-0.254,-10.364
2026-01-28 16:40:43,1.387,-0.281,-10.386
2026-01-28 16:40:43,1.335,-0.327,-10.427
2026-01-28 16:40:43,1.36,-0.232,-10.454
2026-01-28 16:40:43,1.404,-0.269,-10.393
2026-01-28 16:40:43,1.37,-0.212,-10.439
2026-01-28 16:40:43,1.367,-0.291,-10.471
2026-01-28 16:40:43,1.414,-0.291,-10.32
2026-01-28 16:40:43,1.411,-0.237,-10.408
2026-01-28 16:40:43,1.248,-0.247,-10.352
2026-01-28 16:40:43,1.292,-0.31,-10.425
2026-01-28 16:40:43,1.309,-0.32,-10.342
2026-01-28 16:40:43,1.267,-0.283,-10.437
2026-01-28 16:40:43,1.355,-0.276,-10.481
2026-01-28 16:40:43,1.343,-0.298,-10.359
2026-01-28 16:40:43,1.35,-0.2,-10.427
2026-01-28 16:40:43,1.345,-0.256,-10.425
2026-01-28 16:40:43,1.382,-0.225,-10.286
2026-01-28 16:40:43,1.418,-0.208,-10.43
2026-01-28 16:40:43,1.331,-0.259,-10.413
2026-01-28 16:40:43,1.333,-0.232,-10.342
2026-01-28 16:40:43,1.243,-0.264,-10.425
2026-01-28 16:40:43,1.279,-0.298,-10.42
2026-01-28 16:40:43,1.384,-0.249,-10.422
2026-01-28 16:40:43,1.25,-0.266,-10.413
2026-01-28 16:40:43,1.226,-0.344,-10.415
2026-01-28 16:40:43,1.255,-0.378,-10.391
2026-01-28 16:40:43,1.394,-0.244,-10.386
2026-01-28 16:40:43,1.345,-0.259,-10.42
2026-01-28 16:40:43,1.384,-0.205,-10.405
2026-01-28 16:40:43,1.316,-0.222,-10.366
2026-01-28 16:40:43,1.272,-0.261,-10.503
2026-01-28 16:40:43,1.292,-0.254,-10.386
2026-01-28 16:40:43,1.35,-0.2,-10.427
2026-01-28 16:40:43,1.36,-0.286,-10.374
2026-01-28 16:40:44,1.274,-0.225,-10.469
2026-01-28 16:40:44,1.428,-0.261,-10.483
2026-01-28 16:40:44,1.453,-0.317,-10.398
2026-01-28 16:40:44,1.328,-0.256,-10.381
2026-01-28 16:40:44,1.306,-0.317,-10.427
2026-01-28 16:40:44,1.294,-0.283,-10.481
2026-01-28 16:40:44,1.355,-0.259,-10.435
2026-01-28 16:40:44,1.404,-0.232,-10.378
2026-01-28 16:40:44,1.25,-0.22,-10.388
2026-01-28 16:40:44,1.321,-0.227,-10.32
2026-01-28 16:40:44,1.299,-0.276,-10.288
2026-01-28 16:40:44,1.348,-0.239,-10.474
2026-01-28 16:40:44,1.379,-0.278,-10.447
2026-01-28 16:40:44,1.365,-0.227,-10.435
2026-01-28 16:40:44,1.267,-0.269,-10.349
2026-01-28 16:40:44,1.289,-0.337,-10.444
2026-01-28 16:40:44,1.301,-0.303,-10.481
2026-01-28 16:40:44,1.27,-0.31,-10.415
2026-01-28 16:40:44,1.267,-0.288,-10.325
2026-01-28 16:40:44,1.296,-0.298,-10.4
2026-01-28 16:40:44,1.282,-0.325,-10.444
2026-01-28 16:40:44,1.333,-0.203,-10.354
2026-01-28 16:40:44,1.316,-0.293,-10.374
2026-01-28 16:40:44,1.331,-0.205,-10.417
2026-01-28 16:40:44,1.321,-0.249,-10.352
2026-01-28 16:40:44,1.267,-0.305,-10.396
2026-01-28 16:40:44,1.392,-0.266,-10.354
2026-01-28 16:40:44,1.365,-0.322,-10.4
2026-01-28 16:40:44,1.37,-0.278,-10.327
2026-01-28 16:40:44,1.265,-0.278,-10.195
2026-01-28 16:40:44,1.323,-0.225,-10.54
2026-01-28 16:40:44,1.428,-0.164,-10.464
2026-01-28 16:40:44,1.333,-0.31,-10.354
2026-01-28 16:40:44,1.165,-0.273,-10.425
2026-01-28 16:40:44,1.35,-0.261,-10.391
2026-01-28 16:40:44,1.313,-0.249,-10.552
2026-01-28 16:40:44,1.191,-0.349,-10.371
2026-01-28 16:40:44,1.182,-0.308,-10.483
2026-01-28 16:40:44,1.15,-0.288,-10.388
2026-01-28 16:40:44,1.301,-0.325,-10.386
2026-01-28 16:40:44,1.265,-0.283,-10.371
2026-01-28 16:40:44,1.423,-0.256,-10.41
2026-01-28 16:40:44,1.392,-0.242,-10.483
2026-01-28 16:40:44,1.26,-0.293,-10.369
2026-01-28 16:40:44,1.353,-0.22,-10.425
2026-01-28 16:40:44,1.213,-0.32,-10.378
2026-01-28 16:40:44,1.492,-0.261,-10.298
2026-01-28 16:40:44,1.194,-0.327,-10.393
2026-01-28 16:40:44,1.421,-0.232,-10.396
2026-01-28 16:40:44,1.311,-0.271,-10.469
2026-01-28 16:40:44,1.445,-0.225,-10.369
2026-01-28 16:40:44,1.24,-0.259,-10.461
2026-01-28 16:40:44,1.357,-0.315,-10.461
2026-01-28 16:40:44,1.399,-0.171,-10.405
2026-01-28 16:40:44,1.355,-0.256,-10.408
2026-01-28 16:40:44,1.265,-0.242,-10.374
2026-01-28 16:40:44,1.208,-0.303,-10.413
2026-01-28 16:40:44,1.199,-0.317,-10.354
2026-01-28 16:40:44,1.204,-0.288,-10.398
2026-01-28 16:40:44,1.24,-0.249,-10.474
2026-01-28 16:40:44,1.428,-0.256,-10.432
2026-01-28 16:40:44,1.194,-0.303,-10.364
2026-01-28 16:40:44,1.345,-0.261,-10.393
2026-01-28 16:40:44,1.37,-0.291,-10.43
2026-01-28 16:40:44,1.396,-0.232,-10.444
2026-01-28 16:40:44,1.309,-0.269,-10.378
2026-01-28 16:40:44,1.204,-0.266,-10.479
2026-01-28 16:40:44,1.401,-0.254,-10.398
2026-01-28 16:40:44,1.384,-0.234,-10.405
2026-01-28 16:40:44,1.34,-0.183,-10.356
2026-01-28 16:40:44,1.331,-0.256,-10.371
2026-01-28 16:40:44,1.436,-0.249,-10.376
2026-01-28 16:40:44,1.426,-0.215,-10.398
2026-01-28 16:40:44,1.365,-0.256,-10.442
2026-01-28 16:40:44,1.199,-0.364,-10.422
2026-01-28 16:40:44,1.406,-0.271,-10.315
2026-01-28 16:40:44,1.226,-0.281,-10.437
2026-01-28 16:40:44,1.221,-0.303,-10.422
2026-01-28 16:40:44,1.216,-0.278,-10.374
2026-01-28 16:40:44,1.409,-0.227,-10.396
2026-01-28 16:40:44,1.35,-0.247,-10.339
2026-01-28 16:40:44,1.323,-0.261,-10.332
2026-01-28 16:40:44,1.36,-0.242,-10.425
2026-01-28 16:40:44,1.211,-0.276,-10.374
2026-01-28 16:40:44,1.338,-0.312,-10.503
2026-01-28 16:40:44,1.401,-0.22,-10.505
2026-01-28 16:40:44,1.436,-0.234,-10.454
2026-01-28 16:40:44,1.262,-0.317,-10.369
2026-01-28 16:40:44,1.411,-0.208,-10.393
2026-01-28 16:40:44,1.272,-0.325,-10.352
2026-01-28 16:40:44,1.321,-0.315,-10.449
2026-01-28 16:40:45,1.23,-0.281,-10.369
2026-01-28 16:40:45,1.313,-0.266,-10.422
2026-01-28 16:40:45,1.416,-0.227,-10.388
2026-01-28 16:40:45,1.416,-0.281,-10.337
2026-01-28 16:40:45,1.27,-0.291,-10.356
2026-01-28 16:40:45,1.255,-0.315,-10.427
2026-01-28 16:40:45,1.292,-0.242,-10.405
2026-01-28 16:40:45,1.218,-0.259,-10.425
2026-01-28 16:40:45,1.313,-0.31,-10.308
2026-01-28 16:40:45,1.292,-0.254,-10.461
2026-01-28 16:40:45,1.487,-0.225,-10.391
2026-01-28 16:40:45,1.272,-0.269,-10.371
2026-01-28 16:40:45,1.318,-0.264,-10.342
2026-01-28 16:40:45,1.27,-0.254,-10.4
2026-01-28 16:40:45,1.313,-0.317,-10.352
2026-01-28 16:40:45,1.299,-0.2,-10.391
2026-01-28 16:40:45,1.223,-0.286,-10.425
2026-01-28 16:40:45,1.414,-0.22,-10.42
2026-01-28 16:40:45,1.414,-0.249,-10.52
2026-01-28 16:40:45,1.245,-0.271,-10.32
2026-01-28 16:40:45,1.257,-0.259,-10.415
2026-01-28 16:40:45,1.36,-0.305,-10.425
2026-01-28 16:40:45,1.292,-0.291,-10.427
2026-01-28 16:40:45,1.345,-0.298,-10.334
2026-01-28 16:40:45,1.34,-0.269,-10.339
2026-01-28 16:40:45,1.377,-0.291,-10.469
2026-01-28 16:40:45,1.365,-0.266,-10.354
2026-01-28 16:40:45,1.248,-0.298,-10.452
2026-01-28 16:40:45,1.316,-0.225,-10.447
2026-01-28 16:40:45,1.23,-0.295,-10.544
2026-01-28 16:40:45,1.191,-0.283,-10.361
2026-01-28 16:40:45,1.428,-0.261,-10.52
2026-01-28 16:40:45,1.299,-0.256,-10.327
2026-01-28 16:40:45,1.365,-0.286,-10.427
2026-01-28 16:40:45,1.416,-0.242,-10.398
2026-01-28 16:40:45,1.326,-0.259,-10.413
2026-01-28 16:40:45,1.199,-0.225,-10.471
2026-01-28 16:40:45,1.221,-0.22,-10.42
2026-01-28 16:40:45,1.309,-0.266,-10.303
2026-01-28 16:40:45,1.27,-0.242,-10.464
2026-01-28 16:40:45,1.201,-0.303,-10.42
2026-01-28 16:40:45,1.504,-0.229,-10.354
2026-01-28 16:40:45,1.421,-0.298,-10.315
2026-01-28 16:40:45,1.257,-0.278,-10.381
2026-01-28 16:40:45,1.448,-0.259,-10.378
2026-01-28 16:40:45,1.304,-0.31,-10.403
2026-01-28 16:40:45,1.289,-0.273,-10.383
2026-01-28 16:40:45,1.182,-0.315,-10.474
2026-01-28 16:40:45,1.423,-0.168,-10.288
2026-01-28 16:40:45,1.313,-0.227,-10.347
2026-01-28 16:40:45,1.37,-0.22,-10.383
2026-01-28 16:40:45,1.387,-0.227,-10.286
2026-01-28 16:40:45,1.421,-0.232,-10.388
2026-01-28 16:40:45,1.409,-0.212,-10.273
2026-01-28 16:40:45,1.414,-0.2,-10.393
2026-01-28 16:40:45,1.262,-0.249,-10.378
2026-01-28 16:40:45,1.257,-0.295,-10.386
2026-01-28 16:40:45,1.416,-0.232,-10.378
2026-01-28 16:40:45,1.284,-0.293,-10.439
2026-01-28 16:40:45,1.426,-0.276,-10.344
2026-01-28 16:40:45,1.299,-0.303,-10.43
2026-01-28 16:40:45,1.45,-0.315,-10.415
2026-01-28 16:40:45,1.367,-0.234,-10.405
2026-01-28 16:40:45,1.172,-0.293,-10.281
2026-01-28 16:40:45,1.35,-0.288,-10.439
2026-01-28 16:40:45,1.45,-0.232,-10.54
2026-01-28 16:40:45,1.255,-0.325,-10.408
2026-01-28 16:40:45,1.277,-0.21,-10.327
2026-01-28 16:40:45,1.25,-0.271,-10.405
2026-01-28 16:40:45,1.428,-0.232,-10.352
2026-01-28 16:40:45,1.37,-0.251,-10.42
2026-01-28 16:40:45,1.272,-0.3,-10.339
2026-01-28 16:40:45,1.458,-0.237,-10.408
2026-01-28 16:40:45,1.394,-0.295,-10.432
2026-01-28 16:40:45,1.35,-0.205,-10.381
2026-01-28 16:40:45,1.475,-0.264,-10.425
2026-01-28 16:40:45,1.313,-0.283,-10.42
2026-01-28 16:40:45,1.375,-0.183,-10.332
2026-01-28 16:40:45,1.172,-0.254,-10.488
2026-01-28 16:40:45,1.399,-0.266,-10.381
2026-01-28 16:40:45,1.396,-0.173,-10.454
2026-01-28 16:40:45,1.375,-0.156,-10.437
2026-01-28 16:40:45,1.267,-0.273,-10.435
2026-01-28 16:40:45,1.394,-0.193,-10.464
2026-01-28 16:40:45,1.34,-0.266,-10.342
2026-01-28 16:40:45,1.399,-0.217,-10.359
2026-01-28 16:40:45,1.384,-0.286,-10.413
2026-01-28 16:40:45,1.375,-0.31,-10.334
2026-01-28 16:40:45,1.274,-0.305,-10.532
2026-01-28 16:40:46,1.335,-0.337,-10.464
2026-01-28 16:40:46,1.392,-0.249,-10.254
2026-01-28 16:40:46,1.357,-0.269,-10.474
2026-01-28 16:40:46,1.313,-0.303,-10.454
2026-01-28 16:40:46,1.333,-0.305,-10.293
2026-01-28 16:40:46,1.343,-0.239,-10.361
2026-01-28 16:40:46,1.35,-0.291,-10.376
2026-01-28 16:40:46,1.292,-0.237,-10.408
2026-01-28 16:40:46,1.333,-0.303,-10.295
2026-01-28 16:40:46,1.34,-0.334,-10.393
2026-01-28 16:40:46,1.377,-0.264,-10.447
2026-01-28 16:40:46,1.301,-0.3,-10.381
2026-01-28 16:40:46,1.326,-0.288,-10.4
2026-01-28 16:40:46,1.353,-0.232,-10.349
2026-01-28 16:40:46,1.238,-0.322,-10.378
2026-01-28 16:40:46,1.392,-0.312,-10.344
2026-01-28 16:40:46,1.296,-0.249,-10.391
2026-01-28 16:40:46,1.433,-0.244,-10.393
2026-01-28 16:40:46,1.191,-0.295,-10.4
2026-01-28 16:40:46,1.348,-0.242,-10.305
2026-01-28 16:40:46,1.418,-0.242,-10.398
2026-01-28 16:40:46,1.501,-0.234,-10.408
2026-01-28 16:40:46,1.382,-0.261,-10.471
2026-01-28 16:40:46,1.23,-0.295,-10.381
2026-01-28 16:40:46,1.24,-0.322,-10.415
2026-01-28 16:40:46,1.267,-0.322,-10.4
2026-01-28 16:40:46,1.414,-0.205,-10.369
2026-01-28 16:40:46,1.323,-0.229,-10.435
2026-01-28 16:40:46,1.475,-0.212,-10.471
2026-01-28 16:40:46,1.321,-0.278,-10.408
2026-01-28 16:40:46,1.267,-0.273,-10.442
2026-01-28 16:40:46,1.323,-0.215,-10.366
2026-01-28 16:40:46,1.428,-0.286,-10.422
2026-01-28 16:40:46,1.348,-0.249,-10.354
2026-01-28 16:40:46,1.414,-0.273,-10.361
2026-01-28 16:40:46,1.355,-0.295,-10.342
2026-01-28 16:40:46,1.267,-0.278,-10.327
2026-01-28 16:40:46,1.306,-0.281,-10.352
2026-01-28 16:40:46,1.27,-0.295,-10.413
2026-01-28 16:40:46,1.282,-0.278,-10.444
2026-01-28 16:40:46,1.27,-0.229,-10.415
2026-01-28 16:40:46,1.301,-0.215,-10.366
2026-01-28 16:40:46,1.216,-0.3,-10.339
2026-01-28 16:40:46,1.328,-0.276,-10.386
2026-01-28 16:40:46,1.396,-0.256,-10.376
2026-01-28 16:40:46,1.365,-0.273,-10.359
2026-01-28 16:40:46,1.257,-0.317,-10.444
2026-01-28 16:40:46,1.504,-0.12,-10.361
2026-01-28 16:40:46,1.277,-0.295,-10.425
2026-01-28 16:40:46,1.323,-0.334,-10.444
2026-01-28 16:40:46,1.255,-0.281,-10.479
2026-01-28 16:40:46,1.233,-0.31,-10.452
2026-01-28 16:40:46,1.221,-0.3,-10.444
2026-01-28 16:40:46,1.426,-0.234,-10.444
2026-01-28 16:40:46,1.379,-0.3,-10.425
2026-01-28 16:40:46,1.235,-0.293,-10.427
2026-01-28 16:40:46,1.421,-0.2,-10.366
2026-01-28 16:40:46,1.428,-0.242,-10.464
2026-01-28 16:40:46,1.235,-0.334,-10.349
2026-01-28 16:40:46,1.35,-0.225,-10.391
2026-01-28 16:40:46,1.284,-0.278,-10.334
2026-01-28 16:40:46,1.318,-0.234,-10.457
2026-01-28 16:40:46,1.333,-0.249,-10.266
2026-01-28 16:40:46,1.25,-0.232,-10.381
2026-01-28 16:40:46,1.37,-0.247,-10.359
2026-01-28 16:40:46,1.321,-0.222,-10.354
2026-01-28 16:40:46,1.44,-0.239,-10.308
2026-01-28 16:40:46,1.414,-0.249,-10.378
2026-01-28 16:40:46,1.365,-0.222,-10.43
2026-01-28 16:40:46,1.328,-0.303,-10.364
2026-01-28 16:40:46,1.372,-0.242,-10.356
2026-01-28 16:40:46,1.399,-0.249,-10.41
2026-01-28 16:40:46,1.423,-0.215,-10.352
2026-01-28 16:40:46,1.392,-0.3,-10.439
2026-01-28 16:40:46,1.328,-0.288,-10.295
2026-01-28 16:40:46,1.392,-0.317,-10.398
2026-01-28 16:40:46,1.365,-0.254,-10.376
2026-01-28 16:40:46,1.26,-0.261,-10.417
2026-01-28 16:40:46,1.367,-0.242,-10.349
2026-01-28 16:40:46,1.262,-0.254,-10.496
2026-01-28 16:40:46,1.233,-0.273,-10.359
2026-01-28 16:40:46,1.333,-0.242,-10.417
2026-01-28 16:40:46,1.248,-0.308,-10.369
2026-01-28 16:40:46,1.506,-0.259,-10.422
2026-01-28 16:40:46,1.287,-0.242,-10.522
2026-01-28 16:40:46,1.235,-0.295,-10.339
2026-01-28 16:40:46,1.333,-0.271,-10.298
2026-01-28 16:40:46,1.272,-0.281,-10.505
2026-01-28 16:40:46,1.418,-0.205,-10.449
2026-01-28 16:40:46,1.382,-0.3,-10.393
2026-01-28 16:40:47,1.501,-0.293,-10.427
2026-01-28 16:40:47,1.26,-0.31,-10.5
2026-01-28 16:40:47,1.411,-0.225,-10.403
2026-01-28 16:40:47,1.282,-0.249,-10.347
2026-01-28 16:40:47,1.235,-0.352,-11.133
2026-01-28 16:40:47,1.387,-0.298,-10.034
2026-01-28 16:40:47,1.379,-0.259,-10.557
2026-01-28 16:40:47,1.196,-0.298,-10.41
2026-01-28 16:40:47,1.306,-0.347,-10.403
2026-01-28 16:40:47,1.27,-0.322,-10.31
2026-01-28 16:40:47,1.277,-0.317,-10.391
2026-01-28 16:40:47,1.27,-0.278,-10.505
2026-01-28 16:40:47,1.274,-0.317,-10.354
2026-01-28 16:40:47,1.401,-0.264,-10.51
2026-01-28 16:40:47,1.409,-0.276,-10.457
2026-01-28 16:40:47,1.27,-0.266,-10.388
2026-01-28 16:40:47,1.345,-0.293,-10.371
2026-01-28 16:40:47,1.316,-0.239,-10.398
2026-01-28 16:40:47,1.235,-0.249,-10.361
2026-01-28 16:40:47,1.294,-0.312,-10.41
2026-01-28 16:40:47,1.404,-0.247,-10.354
2026-01-28 16:40:47,1.335,-0.269,-10.32
2026-01-28 16:40:47,1.309,-0.242,-10.535
2026-01-28 16:40:47,1.487,-0.271,-10.354
2026-01-28 16:40:47,1.421,-0.247,-10.337
2026-01-28 16:40:47,1.35,-0.291,-10.398
2026-01-28 16:40:47,1.223,-0.303,-10.442
2026-01-28 16:40:47,1.267,-0.283,-10.396
2026-01-28 16:40:47,1.348,-0.251,-10.435
2026-01-28 16:40:47,1.311,-0.281,-10.33
2026-01-28 16:40:47,1.401,-0.244,-10.527
2026-01-28 16:40:47,1.423,-0.22,-10.486
2026-01-28 16:40:47,1.26,-0.352,-10.396
2026-01-28 16:40:47,1.411,-0.244,-10.439
2026-01-28 16:40:47,1.367,-0.266,-10.403
2026-01-28 16:40:47,1.306,-0.276,-10.405
2026-01-28 16:40:47,1.199,-0.295,-10.364
2026-01-28 16:40:47,1.348,-0.273,-10.415
2026-01-28 16:40:47,1.382,-0.281,-10.425
2026-01-28 16:40:47,1.328,-0.171,-10.461
2026-01-28 16:40:47,1.445,-0.261,-10.466
2026-01-28 16:40:47,1.382,-0.227,-10.447
2026-01-28 16:40:47,1.389,-0.286,-10.432
2026-01-28 16:40:47,1.423,-0.19,-10.339
2026-01-28 16:40:47,1.426,-0.188,-10.364
2026-01-28 16:40:47,1.445,-0.273,-10.249
2026-01-28 16:40:47,1.365,-0.239,-10.505
2026-01-28 16:40:47,1.274,-0.32,-10.535
2026-01-28 16:40:47,1.199,-0.3,-10.488
2026-01-28 16:40:47,1.431,-0.222,-10.359
2026-01-28 16:40:47,1.335,-0.339,-10.378
2026-01-28 16:40:47,1.404,-0.247,-10.474
2026-01-28 16:40:47,1.223,-0.293,-10.398
2026-01-28 16:40:47,1.323,-0.234,-10.41
2026-01-28 16:40:47,1.428,-0.227,-10.432
2026-01-28 16:40:47,1.382,-0.195,-10.371
2026-01-28 16:40:47,1.228,-0.303,-10.295
2026-01-28 16:40:47,1.218,-0.291,-10.388
2026-01-28 16:40:47,1.15,-0.31,-10.52
2026-01-28 16:40:47,1.272,-0.283,-10.491
2026-01-28 16:40:47,1.272,-0.264,-10.457
2026-01-28 16:40:47,1.36,-0.291,-10.378
2026-01-28 16:40:47,1.377,-0.261,-10.325
2026-01-28 16:40:47,1.218,-0.33,-10.51
2026-01-28 16:40:47,1.448,-0.269,-10.371
2026-01-28 16:40:47,1.355,-0.273,-10.376
2026-01-28 16:40:47,1.414,-0.22,-10.317
2026-01-28 16:40:47,1.399,-0.215,-10.334
2026-01-28 16:40:47,1.453,-0.234,-10.432
2026-01-28 16:40:47,1.309,-0.249,-10.339
2026-01-28 16:40:47,1.411,-0.215,-10.408
2026-01-28 16:40:47,1.238,-0.352,-10.442
2026-01-28 16:40:47,1.34,-0.32,-10.532
2026-01-28 16:40:47,1.267,-0.327,-10.449
2026-01-28 16:40:47,1.313,-0.229,-10.312
2026-01-28 16:40:47,1.26,-0.244,-10.439
2026-01-28 16:40:47,1.277,-0.3,-10.442
2026-01-28 16:40:47,1.353,-0.312,-10.403
2026-01-28 16:40:47,1.453,-0.195,-10.442
2026-01-28 16:40:47,1.179,-0.254,-10.488
2026-01-28 16:40:47,1.233,-0.273,-10.378
2026-01-28 16:40:47,1.401,-0.317,-10.398
2026-01-28 16:40:47,1.37,-0.288,-10.403
2026-01-28 16:40:47,1.292,-0.295,-10.4
2026-01-28 16:40:47,1.27,-0.342,-10.403
2026-01-28 16:40:47,1.201,-0.281,-10.334
2026-01-28 16:40:47,1.428,-0.161,-10.364
2026-01-28 16:40:47,1.528,-0.173,-10.376
2026-01-28 16:40:47,1.394,-0.212,-10.4
2026-01-28 16:40:47,1.23,-0.244,-10.415
2026-01-28 16:40:47,1.338,-0.242,-10.398
2026-01-28 16:40:48,1.382,-0.229,-10.469
2026-01-28 16:40:48,1.226,-0.278,-10.391
2026-01-28 16:40:48,1.418,-0.286,-10.398
2026-01-28 16:40:48,1.204,-0.303,-10.508
2026-01-28 16:40:48,1.426,-0.261,-10.291
2026-01-28 16:40:48,1.233,-0.276,-10.439
2026-01-28 16:40:48,1.313,-0.234,-10.339
2026-01-28 16:40:48,1.404,-0.171,-10.437
2026-01-28 16:40:48,1.392,-0.193,-10.391
2026-01-28 16:40:48,1.423,-0.186,-10.305
2026-01-28 16:40:48,1.306,-0.22,-10.466
2026-01-28 16:40:48,1.45,-0.222,-10.464
2026-01-28 16:40:48,1.428,-0.244,-10.347
2026-01-28 16:40:48,1.316,-0.325,-10.315
2026-01-28 16:40:48,1.311,-0.33,-10.459
2026-01-28 16:40:48,1.282,-0.352,-10.317
2026-01-28 16:40:48,1.399,-0.288,-10.474
2026-01-28 16:40:48,1.389,-0.249,-10.337
2026-01-28 16:40:48,1.406,-0.273,-10.479
2026-01-28 16:40:48,1.331,-0.225,-10.334
2026-01-28 16:40:48,1.436,-0.217,-10.471
2026-01-28 16:40:48,1.465,-0.188,-10.464
2026-01-28 16:40:48,1.37,-0.225,-10.425
2026-01-28 16:40:48,1.235,-0.217,-10.393
2026-01-28 16:40:48,1.304,-0.256,-10.43
2026-01-28 16:40:48,1.379,-0.298,-10.376
2026-01-28 16:40:48,1.396,-0.232,-10.391
2026-01-28 16:40:48,1.428,-0.239,-10.447
2026-01-28 16:40:48,1.257,-0.232,-10.344
2026-01-28 16:40:48,1.389,-0.266,-10.374
2026-01-28 16:40:48,1.199,-0.278,-10.393
2026-01-28 16:40:48,1.235,-0.32,-10.422
2026-01-28 16:40:48,1.26,-0.254,-10.383
2026-01-28 16:40:48,1.299,-0.273,-10.356
2026-01-28 16:40:48,1.382,-0.242,-10.388
2026-01-28 16:40:48,1.365,-0.249,-10.417
2026-01-28 16:40:48,1.333,-0.249,-10.557
2026-01-28 16:40:48,1.311,-0.237,-10.417
2026-01-28 16:40:48,1.313,-0.291,-10.469
2026-01-28 16:40:48,1.274,-0.217,-10.513
2026-01-28 16:40:48,1.243,-0.322,-10.432
2026-01-28 16:40:48,1.328,-0.247,-10.371
2026-01-28 16:40:48,1.392,-0.188,-10.4
2026-01-28 16:40:48,1.265,-0.195,-10.398
2026-01-28 16:40:48,1.357,-0.254,-10.408
2026-01-28 16:40:48,1.35,-0.203,-10.298
2026-01-28 16:40:48,1.384,-0.291,-10.374
2026-01-28 16:40:48,1.316,-0.208,-10.413
2026-01-28 16:40:48,1.409,-0.264,-10.422
2026-01-28 16:40:48,1.394,-0.291,-10.342
2026-01-28 16:40:48,1.294,-0.288,-10.386
2026-01-28 16:40:48,1.458,-0.293,-10.381
2026-01-28 16:40:48,1.274,-0.278,-10.498
2026-01-28 16:40:48,1.431,-0.295,-10.332
2026-01-28 16:40:48,1.206,-0.342,-10.356
2026-01-28 16:40:48,1.377,-0.178,-10.469
2026-01-28 16:40:48,1.357,-0.183,-10.317
2026-01-28 16:40:48,1.196,-0.261,-10.364
2026-01-28 16:40:48,1.24,-0.271,-10.51
2026-01-28 16:40:48,1.15,-0.3,-10.564
2026-01-28 16:40:48,1.392,-0.269,-10.471
2026-01-28 16:40:48,1.201,-0.334,-10.413
2026-01-28 16:40:48,1.448,-0.249,-10.537
2026-01-28 16:40:48,1.311,-0.242,-10.437
2026-01-28 16:40:48,1.277,-0.381,-10.305
2026-01-28 16:40:48,1.299,-0.3,-10.408
2026-01-28 16:40:48,1.318,-0.261,-10.371
2026-01-28 16:40:48,1.37,-0.222,-10.398
2026-01-28 16:40:48,1.208,-0.308,-10.398
2026-01-28 16:40:48,1.433,-0.237,-10.405
2026-01-28 16:40:48,1.223,-0.283,-10.408
2026-01-28 16:40:48,1.404,-0.208,-10.405
2026-01-28 16:40:48,1.211,-0.276,-10.332
2026-01-28 16:40:48,1.394,-0.291,-10.439
2026-01-28 16:40:48,1.213,-0.317,-10.437
2026-01-28 16:40:48,1.423,-0.3,-10.405
2026-01-28 16:40:48,1.379,-0.291,-10.415
2026-01-28 16:40:48,1.257,-0.273,-10.374
2026-01-28 16:40:48,1.436,-0.234,-10.356
2026-01-28 16:40:48,1.431,-0.256,-10.483
2026-01-28 16:40:48,1.223,-0.303,-10.327
2026-01-28 16:40:49,1.436,-0.291,-10.403
2026-01-28 16:40:49,1.292,-0.303,-10.493
2026-01-28 16:40:49,1.448,-0.227,-10.374
2026-01-28 16:40:49,1.401,-0.31,-10.305
2026-01-28 16:40:49,1.333,-0.293,-10.435
2026-01-28 16:40:49,1.184,-0.303,-10.386
2026-01-28 16:40:49,1.372,-0.273,-10.391
2026-01-28 16:40:49,1.233,-0.344,-10.391
2026-01-28 16:40:49,1.331,-0.244,-10.466
2026-01-28 16:40:49,1.428,-0.22,-10.356
2026-01-28 16:40:49,1.282,-0.247,-10.413
2026-01-28 16:40:49,1.13,-0.334,-10.339
2026-01-28 16:40:49,1.335,-0.259,-10.374
2026-01-28 16:40:49,1.272,-0.327,-10.439
2026-01-28 16:40:49,1.194,-0.339,-10.405
2026-01-28 16:40:49,1.316,-0.278,-10.42
2026-01-28 16:40:49,1.401,-0.239,-10.486
2026-01-28 16:40:49,1.365,-0.217,-10.315
2026-01-28 16:40:49,1.304,-0.203,-10.364
2026-01-28 16:40:49,1.375,-0.273,-10.31
2026-01-28 16:40:49,1.265,-0.325,-10.435
2026-01-28 16:40:49,1.243,-0.327,-10.417
2026-01-28 16:40:49,1.289,-0.33,-10.349
2026-01-28 16:40:49,1.428,-0.259,-10.413
2026-01-28 16:40:49,1.208,-0.298,-10.459
2026-01-28 16:40:49,1.436,-0.212,-10.466
2026-01-28 16:40:49,1.248,-0.376,-10.291
2026-01-28 16:40:49,1.277,-0.269,-10.449
2026-01-28 16:40:49,1.382,-0.288,-10.51
2026-01-28 16:40:49,1.484,-0.239,-10.469
2026-01-28 16:40:49,1.27,-0.298,-10.5
2026-01-28 16:40:49,1.445,-0.264,-10.378
2026-01-28 16:40:49,1.292,-0.291,-10.391
2026-01-28 16:40:49,1.294,-0.266,-10.32
2026-01-28 16:40:49,1.365,-0.276,-10.322
2026-01-28 16:40:49,1.382,-0.247,-10.383
2026-01-28 16:40:49,1.333,-0.295,-10.435
2026-01-28 16:40:49,1.406,-0.205,-10.347
2026-01-28 16:40:49,1.313,-0.266,-10.442
2026-01-28 16:40:49,1.255,-0.212,-10.359
2026-01-28 16:40:49,1.443,-0.232,-10.393
2026-01-28 16:40:49,1.365,-0.271,-10.444
2026-01-28 16:40:49,1.333,-0.312,-10.427
2026-01-28 16:40:49,1.521,-0.225,-10.415
2026-01-28 16:40:49,1.365,-0.269,-10.374
2026-01-28 16:40:49,1.274,-0.259,-10.366
2026-01-28 16:40:49,1.46,-0.21,-10.374
2026-01-28 16:40:49,1.245,-0.31,-10.391
2026-01-28 16:40:49,1.228,-0.254,-10.393
2026-01-28 16:40:49,1.182,-0.249,-10.4
2026-01-28 16:40:49,1.301,-0.303,-10.422
2026-01-28 16:40:49,1.309,-0.269,-10.354
2026-01-28 16:40:49,1.396,-0.281,-10.359
2026-01-28 16:40:49,1.384,-0.222,-10.425
2026-01-28 16:40:49,1.277,-0.286,-10.359
2026-01-28 16:40:49,1.401,-0.186,-10.405
2026-01-28 16:40:49,1.282,-0.298,-10.483
2026-01-28 16:40:49,1.382,-0.278,-10.469
2026-01-28 16:40:49,1.37,-0.264,-10.376
2026-01-28 16:40:49,1.316,-0.239,-10.31
2026-01-28 16:40:49,1.382,-0.181,-10.518
2026-01-28 16:40:49,1.355,-0.291,-10.356
2026-01-28 16:40:49,1.289,-0.261,-10.374
2026-01-28 16:40:49,1.318,-0.334,-10.444
2026-01-28 16:40:49,1.211,-0.266,-10.427
2026-01-28 16:40:49,1.47,-0.22,-10.369
2026-01-28 16:40:49,1.367,-0.291,-10.52
2026-01-28 16:40:49,1.372,-0.298,-10.5
2026-01-28 16:40:49,1.465,-0.254,-10.366
2026-01-28 16:40:49,1.372,-0.227,-10.425
2026-01-28 16:40:49,1.323,-0.271,-10.452
2026-01-28 16:40:49,1.167,-0.381,-10.437
2026-01-28 16:40:49,1.296,-0.339,-10.437
2026-01-28 16:40:49,1.216,-0.244,-10.486
2026-01-28 16:40:49,1.199,-0.31,-10.381
2026-01-28 16:40:49,1.414,-0.232,-10.408
2026-01-28 16:40:49,1.204,-0.264,-10.356
2026-01-28 16:40:49,1.279,-0.308,-10.376
2026-01-28 16:40:49,1.211,-0.278,-10.452
2026-01-28 16:40:49,1.289,-0.256,-10.378
2026-01-28 16:40:49,1.262,-0.3,-10.364
2026-01-28 16:40:49,1.14,-0.354,-10.352
2026-01-28 16:40:49,1.389,-0.291,-10.42
2026-01-28 16:40:49,1.345,-0.3,-10.33
2026-01-28 16:40:49,1.34,-0.317,-10.347
2026-01-28 16:40:49,1.348,-0.3,-10.364
2026-01-28 16:40:49,1.416,-0.254,-10.344
2026-01-28 16:40:49,1.345,-0.225,-10.305
2026-01-28 16:40:49,1.272,-0.239,-10.369
2026-01-28 16:40:49,1.27,-0.291,-10.42
2026-01-28 16:40:49,1.436,-0.2,-10.371
2026-01-28 16:40:50,1.262,-0.237,-10.51
2026-01-28 16:40:50,1.35,-0.22,-10.359
2026-01-28 16:40:50,1.304,-0.232,-10.417
2026-01-28 16:40:50,1.318,-0.273,-10.552
2026-01-28 16:40:50,1.36,-0.244,-10.393
2026-01-28 16:40:50,1.213,-0.305,-10.339
2026-01-28 16:40:50,1.299,-0.198,-10.417
2026-01-28 16:40:50,1.382,-0.249,-10.525
2026-01-28 16:40:50,1.257,-0.283,-10.374
2026-01-28 16:40:50,1.287,-0.339,-10.4
2026-01-28 16:40:50,1.272,-0.283,-10.444
2026-01-28 16:40:50,1.445,-0.242,-10.413
2026-01-28 16:40:50,1.296,-0.308,-10.391
2026-01-28 16:40:50,1.392,-0.283,-10.43
2026-01-28 16:40:50,1.287,-0.317,-10.374
2026-01-28 16:40:50,1.345,-0.222,-10.435
2026-01-28 16:40:50,1.404,-0.259,-10.234
2026-01-28 16:40:50,1.274,-0.315,-10.396
2026-01-28 16:40:50,1.223,-0.21,-10.361
2026-01-28 16:40:50,1.377,-0.247,-10.344
2026-01-28 16:40:50,1.206,-0.308,-10.408
2026-01-28 16:40:50,1.274,-0.276,-10.381
2026-01-28 16:40:50,1.255,-0.242,-10.437
2026-01-28 16:40:50,1.399,-0.234,-10.347
2026-01-28 16:40:50,1.416,-0.288,-10.444
2026-01-28 16:40:50,1.272,-0.32,-10.281
2026-01-28 16:40:50,1.182,-0.222,-10.591
2026-01-28 16:40:50,1.536,-0.32,-10.688
2026-01-28 16:40:50,1.282,-0.374,-10.244
2026-01-28 16:40:50,1.26,-0.305,-10.347
2026-01-28 16:40:50,1.309,-0.203,-10.391
2026-01-28 16:40:50,1.367,-0.344,-10.43
2026-01-28 16:40:50,1.362,-0.283,-10.457
2026-01-28 16:40:50,1.353,-0.208,-10.327
2026-01-28 16:40:50,1.206,-0.354,-10.444
2026-01-28 16:40:50,1.335,-0.166,-10.696
2026-01-28 16:40:50,1.47,-0.256,-10.327
2026-01-28 16:40:50,1.353,-0.234,-10.376
2026-01-28 16:40:50,1.265,-0.22,-10.391
2026-01-28 16:40:50,1.287,-0.31,-10.459
2026-01-28 16:40:50,1.318,-0.298,-10.361
2026-01-28 16:40:50,1.392,-0.281,-10.398
2026-01-28 16:40:50,1.274,-0.288,-10.256
2026-01-28 16:40:50,1.204,-0.222,-10.464
2026-01-28 16:40:50,1.453,-0.276,-10.671
2026-01-28 16:40:50,1.367,-0.229,-10.552
2026-01-28 16:40:50,1.245,-0.286,-10.22
2026-01-28 16:40:50,1.362,-0.261,-10.369
2026-01-28 16:40:50,1.309,-0.347,-10.439
2026-01-28 16:40:50,1.458,-0.164,-10.503
2026-01-28 16:40:50,1.453,-0.21,-10.205
2026-01-28 16:40:50,1.584,-0.112,-10.322
2026-01-28 16:40:50,1.23,-0.234,-10.339
2026-01-28 16:40:50,1.484,-0.43,-10.449
2026-01-28 16:40:50,1.367,-0.254,-10.146
2026-01-28 16:40:50,1.387,-0.234,-10.457
2026-01-28 16:40:50,1.497,-0.276,-10.669
2026-01-28 16:40:50,1.272,-0.308,-10.286
2026-01-28 16:40:50,1.204,-0.33,-10.559
2026-01-28 16:40:50,1.455,-0.325,-10.481
2026-01-28 16:40:50,1.204,-0.291,-10.286
2026-01-28 16:40:50,1.34,-0.327,-10.474
2026-01-28 16:40:50,1.267,-0.266,-10.308
2026-01-28 16:40:50,1.328,-0.337,-9.946
2026-01-28 16:40:50,1.26,-0.269,-10.591
2026-01-28 16:40:50,1.228,-0.193,-10.498
2026-01-28 16:40:50,1.367,-0.261,-10.271
2026-01-28 16:40:50,1.174,-0.305,-10.381
2026-01-28 16:40:50,1.326,-0.261,-10.393
2026-01-28 16:40:50,1.333,-0.261,-10.505
2026-01-28 16:40:50,1.318,-0.325,-10.432
2026-01-28 16:40:50,1.433,-0.249,-10.339
2026-01-28 16:40:50,1.243,-0.366,-10.415
2026-01-28 16:40:50,1.448,-0.217,-10.471
2026-01-28 16:40:50,1.416,-0.21,-10.376
2026-01-28 16:40:50,1.523,-0.208,-10.378
2026-01-28 16:40:50,1.436,-0.068,-10.837
2026-01-28 16:40:50,1.414,-0.181,-10.281
2026-01-28 16:40:50,1.277,-0.266,-10.222
2026-01-28 16:40:50,1.335,-0.208,-10.53
2026-01-28 16:40:50,1.433,-0.305,-10.386
2026-01-28 16:40:50,1.262,-0.288,-10.515
2026-01-28 16:40:50,1.248,-0.334,-10.391
2026-01-28 16:40:50,1.287,-0.452,-8.75
2026-01-28 16:40:50,1.252,-0.176,-11.223
2026-01-28 16:40:50,1.362,-0.312,-10.374
2026-01-28 16:40:50,1.409,-0.244,-10.576
2026-01-28 16:40:50,1.389,-0.215,-10.334
2026-01-28 16:40:50,1.348,-0.288,-10.396
2026-01-28 16:40:50,1.375,-0.193,-10.371
2026-01-28 16:40:50,1.265,-0.237,-10.352
2026-01-28 16:40:51,1.252,-0.249,-10.251
2026-01-28 16:40:51,1.223,-0.154,-10.61
2026-01-28 16:40:51,1.514,-0.481,-10.676
2026-01-28 16:40:51,1.401,-0.298,-10.149
2026-01-28 16:40:51,1.172,-0.198,-10.381
2026-01-28 16:40:51,1.382,-0.325,-10.254
2026-01-28 16:40:51,1.277,-0.366,-10.525
2026-01-28 16:40:51,1.323,-0.312,-10.295
2026-01-28 16:40:51,1.255,-0.261,-10.383
2026-01-28 16:40:51,1.36,-0.288,-10.1
2026-01-28 16:40:51,1.121,-0.007,-11.047
2026-01-28 16:40:51,1.538,-0.427,-10.364
2026-01-28 16:40:51,1.145,-0.264,-10.093
2026-01-28 16:40:51,1.267,-0.186,-10.571
2026-01-28 16:40:51,1.375,-0.266,-10.386
2026-01-28 16:40:51,1.318,-0.291,-10.493
2026-01-28 16:40:51,1.267,-0.288,-10.344
2026-01-28 16:40:51,1.367,-0.293,-10.317
2026-01-28 16:40:51,1.27,-0.339,-10.522
2026-01-28 16:40:51,1.274,-0.178,-11.16
2026-01-28 16:40:51,1.433,-0.369,-10.249
2026-01-28 16:40:51,1.311,-0.132,-9.968
2026-01-28 16:40:51,1.248,-0.222,-10.686
2026-01-28 16:40:51,1.292,-0.293,-10.364
2026-01-28 16:40:51,1.467,-0.232,-10.361
2026-01-28 16:40:51,1.328,-0.342,-10.391
2026-01-28 16:40:51,1.174,-0.339,-10.337
2026-01-28 16:40:51,1.421,-0.178,-10.544
2026-01-28 16:40:51,1.431,-0.374,-9.653
2026-01-28 16:40:51,1.311,-0.271,-10.957
2026-01-28 16:40:51,1.304,-0.21,-10.32
2026-01-28 16:40:51,1.348,-0.396,-10.315
2026-01-28 16:40:51,1.289,-0.256,-10.295
2026-01-28 16:40:51,1.411,-0.251,-10.303
2026-01-28 16:40:51,1.426,-0.203,-10.603
2026-01-28 16:40:51,1.223,-0.3,-10.183
2026-01-28 16:40:51,1.277,-0.295,-10.503
2026-01-28 16:40:51,1.365,-0.295,-10.356
2026-01-28 16:40:51,1.318,0.007,-11.287
2026-01-28 16:40:51,1.497,-0.515,-10.691
2026-01-28 16:40:51,1.416,-0.259,-10.125
2026-01-28 16:40:51,1.167,-0.127,-10.471
2026-01-28 16:40:51,1.428,-0.3,-10.378
2026-01-28 16:40:51,1.282,-0.305,-10.496
2026-01-28 16:40:51,1.262,-0.21,-10.327
2026-01-28 16:40:51,1.294,-0.332,-10.112
2026-01-28 16:40:51,0.837,-0.107,-11.755
2026-01-28 16:40:51,1.58,-0.562,-10.054
2026-01-28 16:40:51,1.15,-0.298,-9.873
2026-01-28 16:40:51,1.335,-0.125,-10.906
2026-01-28 16:40:51,1.306,-0.41,-10.334
2026-01-28 16:40:51,1.445,-0.261,-10.415
2026-01-28 16:40:51,1.309,-0.273,-10.415
2026-01-28 16:40:51,1.287,0.002,-10.923
2026-01-28 16:40:51,1.409,-0.332,-10.095
2026-01-28 16:40:51,1.262,-0.225,-10.005
2026-01-28 16:40:51,1.25,-0.325,-10.75
2026-01-28 16:40:51,1.252,-0.344,-10.325
2026-01-28 16:40:51,1.445,-0.183,-10.315
2026-01-28 16:40:51,1.282,-0.261,-10.535
2026-01-28 16:40:51,1.309,-0.337,-10.156
2026-01-28 16:40:51,1.348,-0.227,-10.566
2026-01-28 16:40:51,1.235,-0.515,-8.831
2026-01-28 16:40:51,1.392,-0.112,-10.991
2026-01-28 16:40:51,1.646,-0.488,-10.576
2026-01-28 16:40:51,1.367,-0.303,-10.923
2026-01-28 16:40:51,1.233,-0.249,-10.0
2026-01-28 16:40:51,1.401,-0.354,-10.41
2026-01-28 16:40:51,1.492,-0.239,-10.618
2026-01-28 16:40:51,1.255,-0.33,-10.195
2026-01-28 16:40:51,1.206,-0.171,-10.381
2026-01-28 16:40:51,1.284,-0.308,-10.342
2026-01-28 16:40:51,1.201,-0.273,-10.427
2026-01-28 16:40:51,1.409,-0.254,-10.559
2026-01-28 16:40:51,1.299,-0.21,-10.188
2026-01-28 16:40:51,1.328,-0.203,-10.498
2026-01-28 16:40:51,1.172,-0.317,-10.312
2026-01-28 16:40:51,1.367,-0.305,-10.332
2026-01-28 16:40:51,1.396,-0.229,-10.452
2026-01-28 16:40:51,1.416,-0.21,-10.344
2026-01-28 16:40:51,1.396,-0.283,-10.435
2026-01-28 16:40:51,1.377,-0.222,-10.334
2026-01-28 16:40:51,1.279,-0.339,-10.457
2026-01-28 16:40:51,1.348,-0.203,-10.442
2026-01-28 16:40:51,1.343,-0.303,-10.312
2026-01-28 16:40:51,1.252,-0.273,-10.552
2026-01-28 16:40:51,1.377,-0.205,-10.435
2026-01-28 16:40:51,1.396,-0.195,-10.481
2026-01-28 16:40:51,1.421,-0.291,-10.474
2026-01-28 16:40:51,1.306,-0.305,-10.41
2026-01-28 16:40:51,1.323,-0.232,-10.361
2026-01-28 16:40:52,1.392,-0.242,-10.427
2026-01-28 16:40:52,1.248,-0.271,-10.366
2026-01-28 16:40:52,1.365,-0.327,-10.427
2026-01-28 16:40:52,1.301,-0.3,-10.442
2026-01-28 16:40:52,1.301,-0.32,-10.491
2026-01-28 16:40:52,1.208,-0.281,-10.454
2026-01-28 16:40:52,1.377,-0.254,-10.515
2026-01-28 16:40:52,1.292,-0.317,-10.398
2026-01-28 16:40:52,1.353,-0.227,-10.413
2026-01-28 16:40:52,1.248,-0.271,-10.381
2026-01-28 16:40:52,1.406,-0.237,-10.466
2026-01-28 16:40:52,1.426,-0.208,-10.298
2026-01-28 16:40:52,1.445,-0.254,-10.459
2026-01-28 16:40:52,1.462,-0.256,-10.339
2026-01-28 16:40:52,1.46,-0.269,-10.459
2026-01-28 16:40:52,1.296,-0.344,-10.386
2026-01-28 16:40:52,1.355,-0.234,-10.491
2026-01-28 16:40:52,1.396,-0.305,-10.303
2026-01-28 16:40:52,1.262,-0.325,-10.244
2026-01-28 16:40:52,1.426,-0.317,-10.527
2026-01-28 16:40:52,1.182,-0.334,-10.471
2026-01-28 16:40:52,1.323,-0.276,-10.498
2026-01-28 16:40:52,1.421,-0.239,-10.386
2026-01-28 16:40:52,1.389,-0.312,-10.425
2026-01-28 16:40:52,1.257,-0.273,-10.535
2026-01-28 16:40:52,1.426,-0.195,-10.371
2026-01-28 16:40:52,1.367,-0.305,-10.247
2026-01-28 16:40:52,1.252,-0.22,-10.439
2026-01-28 16:40:52,1.367,-0.347,-10.457
2026-01-28 16:40:52,1.311,-0.266,-10.217
2026-01-28 16:40:52,1.23,-0.291,-10.422
2026-01-28 16:40:52,1.252,-0.344,-10.371
2026-01-28 16:40:52,1.411,-0.298,-10.552
2026-01-28 16:40:52,1.279,-0.308,-10.42
2026-01-28 16:40:52,1.299,-0.278,-10.369
2026-01-28 16:40:52,1.296,-0.227,-10.383
2026-01-28 16:40:52,1.252,-0.239,-10.354
2026-01-28 16:40:52,1.35,-0.215,-10.444
2026-01-28 16:40:52,1.267,-0.239,-10.513
2026-01-28 16:40:52,1.282,-0.312,-10.491
2026-01-28 16:40:52,1.357,-0.298,-10.374
2026-01-28 16:40:52,1.287,-0.217,-10.393
2026-01-28 16:40:52,1.301,-0.359,-10.4
2026-01-28 16:40:52,1.179,-0.344,-10.286
2026-01-28 16:40:52,1.233,-0.225,-10.469
2026-01-28 16:40:52,1.25,-0.337,-10.369
2026-01-28 16:40:52,1.323,-0.256,-10.425
2026-01-28 16:40:52,1.328,-0.251,-10.303
2026-01-28 16:40:52,1.284,-0.247,-10.408
2026-01-28 16:40:52,1.396,-0.249,-10.503
2026-01-28 16:40:52,1.375,-0.2,-10.457
2026-01-28 16:40:52,1.289,-0.239,-10.332
2026-01-28 16:40:52,1.294,-0.242,-10.381
2026-01-28 16:40:52,1.277,-0.349,-10.415
2026-01-28 16:40:52,1.328,-0.325,-10.439
2026-01-28 16:40:52,1.289,-0.266,-10.396
2026-01-28 16:40:52,1.292,-0.322,-10.337
2026-01-28 16:40:52,1.348,-0.281,-10.354
2026-01-28 16:40:52,1.36,-0.21,-10.378
2026-01-28 16:40:52,1.299,-0.234,-10.391
2026-01-28 16:40:52,1.287,-0.227,-10.437
2026-01-28 16:40:52,1.433,-0.186,-10.349
2026-01-28 16:40:52,1.475,-0.176,-10.43
2026-01-28 16:40:52,1.348,-0.312,-10.356
2026-01-28 16:40:52,1.213,-0.276,-10.432
2026-01-28 16:40:52,1.223,-0.337,-10.4
2026-01-28 16:40:52,1.182,-0.369,-10.378
2026-01-28 16:40:52,1.365,-0.352,-10.383
2026-01-28 16:40:52,1.372,-0.303,-10.447
2026-01-28 16:40:52,1.431,-0.234,-10.342
2026-01-28 16:40:52,1.365,-0.227,-10.322
2026-01-28 16:40:52,1.213,-0.261,-10.464
2026-01-28 16:40:52,1.362,-0.176,-10.51
2026-01-28 16:40:52,1.362,-0.227,-10.51
2026-01-28 16:40:52,1.201,-0.205,-10.464
2026-01-28 16:40:52,1.45,-0.178,-10.42
2026-01-28 16:40:52,1.26,-0.325,-10.461
2026-01-28 16:40:52,1.35,-0.295,-10.356
2026-01-28 16:40:52,1.218,-0.305,-10.425
2026-01-28 16:40:52,1.233,-0.293,-10.408
2026-01-28 16:40:52,1.223,-0.266,-10.518
2026-01-28 16:40:52,1.301,-0.283,-10.469
2026-01-28 16:40:52,1.282,-0.305,-10.391
2026-01-28 16:40:52,1.213,-0.237,-10.359
2026-01-28 16:40:52,1.382,-0.259,-10.527
2026-01-28 16:40:52,1.387,-0.232,-10.391
2026-01-28 16:40:52,1.272,-0.259,-10.425
2026-01-28 16:40:52,1.228,-0.276,-10.432
2026-01-28 16:40:52,1.238,-0.222,-10.437
2026-01-28 16:40:52,1.213,-0.317,-10.361
2026-01-28 16:40:52,1.34,-0.234,-10.347
2026-01-28 16:40:53,1.328,-0.298,-10.527
2026-01-28 16:40:53,1.37,-0.283,-10.408
2026-01-28 16:40:53,1.331,-0.315,-10.42
2026-01-28 16:40:53,1.348,-0.291,-10.486
2026-01-28 16:40:53,1.323,-0.227,-10.408
2026-01-28 16:40:53,1.365,-0.178,-10.479
2026-01-28 16:40:53,1.255,-0.288,-10.417
2026-01-28 16:40:53,1.338,-0.208,-10.344
2026-01-28 16:40:53,1.418,-0.154,-10.439
2026-01-28 16:40:53,1.318,-0.256,-10.378
2026-01-28 16:40:53,1.353,-0.327,-10.361
2026-01-28 16:40:53,1.233,-0.286,-10.505
2026-01-28 16:40:53,1.194,-0.349,-10.452
2026-01-28 16:40:53,1.228,-0.339,-10.403
2026-01-28 16:40:53,1.216,-0.312,-10.486
2026-01-28 16:40:53,1.23,-0.315,-10.461
2026-01-28 16:40:53,1.162,-0.256,-10.403
2026-01-28 16:40:53,1.16,-0.31,-10.32
2026-01-28 16:40:53,1.311,-0.247,-10.469
2026-01-28 16:40:53,1.106,-0.31,-10.405
2026-01-28 16:40:53,1.416,-0.234,-10.417
2026-01-28 16:40:53,1.428,-0.242,-10.359
2026-01-28 16:40:53,1.274,-0.317,-10.444
2026-01-28 16:40:53,1.257,-0.303,-10.322
2026-01-28 16:40:53,1.279,-0.305,-10.413
2026-01-28 16:40:53,1.174,-0.293,-10.481
2026-01-28 16:40:53,1.257,-0.256,-10.486
2026-01-28 16:40:53,1.423,-0.171,-10.295
2026-01-28 16:40:53,1.357,-0.305,-10.466
2026-01-28 16:40:53,1.343,-0.249,-10.422
2026-01-28 16:40:53,1.472,-0.176,-10.496
2026-01-28 16:40:53,1.313,-0.278,-10.369
2026-01-28 16:40:53,1.433,-0.247,-10.312
2026-01-28 16:40:53,1.35,-0.217,-10.4
2026-01-28 16:40:53,1.333,-0.31,-10.422
2026-01-28 16:40:53,1.211,-0.332,-10.422
2026-01-28 16:40:53,1.353,-0.229,-10.442
2026-01-28 16:40:53,1.523,-0.283,-10.496
2026-01-28 16:40:53,1.372,-0.266,-10.291
2026-01-28 16:40:53,1.458,-0.266,-10.356
2026-01-28 16:40:53,1.409,-0.21,-10.391
2026-01-28 16:40:53,1.228,-0.305,-10.369
2026-01-28 16:40:53,1.265,-0.31,-10.32
2026-01-28 16:40:53,1.204,-0.342,-10.337
2026-01-28 16:40:53,1.335,-0.244,-10.396
2026-01-28 16:40:53,1.252,-0.239,-10.405
2026-01-28 16:40:53,1.416,-0.295,-10.464
2026-01-28 16:40:53,1.404,-0.234,-10.4
2026-01-28 16:40:53,1.196,-0.303,-10.413
2026-01-28 16:40:53,1.301,-0.232,-10.371
2026-01-28 16:40:53,1.211,-0.354,-10.417
2026-01-28 16:40:53,1.475,-0.234,-10.447
2026-01-28 16:40:53,1.252,-0.344,-10.42
2026-01-28 16:40:53,1.23,-0.293,-10.381
2026-01-28 16:40:53,1.406,-0.215,-10.33
2026-01-28 16:40:53,1.311,-0.354,-10.449
2026-01-28 16:40:53,1.399,-0.276,-10.432
2026-01-28 16:40:53,1.274,-0.325,-10.425
2026-01-28 16:40:53,1.416,-0.256,-10.322
2026-01-28 16:40:53,1.362,-0.256,-10.369
2026-01-28 16:40:53,1.377,-0.198,-10.413
2026-01-28 16:40:53,1.284,-0.303,-10.4
2026-01-28 16:40:53,1.426,-0.259,-10.354
2026-01-28 16:40:53,1.338,-0.308,-10.42
2026-01-28 16:40:53,1.177,-0.291,-10.442
2026-01-28 16:40:53,1.475,-0.225,-10.437
2026-01-28 16:40:53,1.274,-0.349,-10.317
2026-01-28 16:40:53,1.204,-0.249,-10.403
2026-01-28 16:40:53,1.174,-0.32,-10.403
2026-01-28 16:40:53,1.252,-0.293,-10.344
2026-01-28 16:40:53,1.411,-0.247,-10.383
2026-01-28 16:40:53,1.24,-0.273,-10.488
2026-01-28 16:40:53,1.306,-0.344,-10.471
2026-01-28 16:40:53,1.404,-0.21,-10.474
2026-01-28 16:40:53,1.445,-0.22,-10.42
2026-01-28 16:40:53,1.294,-0.254,-10.513
2026-01-28 16:40:53,1.27,-0.327,-10.461
2026-01-28 16:40:53,1.299,-0.261,-10.417
2026-01-28 16:40:53,1.372,-0.203,-10.474
2026-01-28 16:40:53,1.392,-0.22,-10.32
2026-01-28 16:40:53,1.299,-0.266,-10.354
2026-01-28 16:40:53,1.475,-0.31,-10.403
2026-01-28 16:40:53,1.301,-0.273,-10.378
2026-01-28 16:40:53,1.277,-0.259,-10.4
2026-01-28 16:40:53,1.343,-0.312,-10.398
2026-01-28 16:40:53,1.243,-0.261,-10.417
2026-01-28 16:40:53,1.255,-0.276,-10.415
2026-01-28 16:40:53,1.274,-0.256,-10.42
2026-01-28 16:40:53,1.365,-0.198,-10.391
2026-01-28 16:40:53,1.211,-0.347,-10.415
2026-01-28 16:40:53,1.326,-0.251,-10.466
2026-01-28 16:40:54,1.421,-0.339,-10.374
2026-01-28 16:40:54,1.44,-0.19,-10.422
2026-01-28 16:40:54,1.323,-0.352,-10.464
2026-01-28 16:40:54,1.394,-0.229,-10.366
2026-01-28 16:40:54,1.316,-0.256,-10.452
2026-01-28 16:40:54,1.367,-0.266,-10.381
2026-01-28 16:40:54,1.243,-0.198,-10.403
2026-01-28 16:40:54,1.431,-0.195,-10.347
2026-01-28 16:40:54,1.387,-0.21,-10.471
2026-01-28 16:40:54,1.265,-0.259,-10.447
2026-01-28 16:40:54,1.257,-0.254,-10.417
2026-01-28 16:40:54,1.287,-0.249,-10.322
2026-01-28 16:40:54,1.211,-0.286,-10.344
2026-01-28 16:40:54,1.282,-0.254,-10.42
2026-01-28 16:40:54,1.406,-0.234,-10.347
2026-01-28 16:40:54,1.443,-0.259,-10.361
2026-01-28 16:40:54,1.204,-0.317,-10.356
2026-01-28 16:40:54,1.274,-0.339,-10.496
2026-01-28 16:40:54,1.301,-0.298,-10.422
2026-01-28 16:40:54,1.365,-0.278,-10.364
2026-01-28 16:40:54,1.25,-0.293,-10.413
2026-01-28 16:40:54,1.411,-0.251,-10.42
2026-01-28 16:40:54,1.34,-0.264,-10.388
2026-01-28 16:40:54,1.357,-0.225,-10.432
2026-01-28 16:40:54,1.384,-0.293,-10.459
2026-01-28 16:40:54,1.189,-0.198,-10.444
2026-01-28 16:40:54,1.243,-0.293,-10.43
2026-01-28 16:40:54,1.433,-0.215,-10.388
2026-01-28 16:40:54,1.423,-0.251,-10.391
2026-01-28 16:40:54,1.35,-0.212,-10.435
2026-01-28 16:40:54,1.392,-0.273,-10.479
2026-01-28 16:40:54,1.313,-0.256,-10.237
2026-01-28 16:40:54,1.389,-0.215,-10.398
2026-01-28 16:40:54,1.235,-0.225,-10.493
2026-01-28 16:40:54,1.448,-0.22,-10.386
2026-01-28 16:40:54,1.382,-0.234,-10.476
2026-01-28 16:40:54,1.196,-0.239,-10.342
2026-01-28 16:40:54,1.404,-0.247,-10.41
2026-01-28 16:40:54,1.233,-0.315,-10.43
2026-01-28 16:40:54,1.287,-0.256,-10.437
2026-01-28 16:40:54,1.226,-0.298,-10.396
2026-01-28 16:40:54,1.377,-0.295,-10.413
2026-01-28 16:40:54,1.428,-0.254,-10.483
2026-01-28 16:40:54,1.404,-0.225,-10.403
2026-01-28 16:40:54,1.389,-0.215,-10.342
2026-01-28 16:40:54,1.289,-0.349,-10.374
2026-01-28 16:40:54,1.277,-0.288,-10.5
2026-01-28 16:40:54,1.235,-0.264,-10.371
2026-01-28 16:40:54,1.416,-0.254,-10.396
2026-01-28 16:40:54,1.399,-0.271,-10.381
2026-01-28 16:40:54,1.282,-0.286,-10.378
2026-01-28 16:40:54,1.284,-0.305,-10.488
2026-01-28 16:40:54,1.272,-0.281,-10.361
2026-01-28 16:40:54,1.323,-0.283,-10.383
2026-01-28 16:40:54,1.25,-0.305,-10.371
2026-01-28 16:40:54,1.272,-0.283,-10.427
2026-01-28 16:40:54,1.44,-0.254,-10.413
2026-01-28 16:40:54,1.389,-0.281,-10.393
2026-01-28 16:40:54,1.277,-0.298,-10.439
2026-01-28 16:40:54,1.301,-0.251,-10.386
2026-01-28 16:40:54,1.326,-0.222,-10.427
2026-01-28 16:40:54,1.406,-0.261,-10.303
2026-01-28 16:40:54,1.299,-0.312,-10.317
2026-01-28 16:40:54,1.414,-0.242,-10.325
2026-01-28 16:40:54,1.389,-0.249,-10.386
2026-01-28 16:40:54,1.135,-0.327,-10.347
2026-01-28 16:40:54,1.189,-0.339,-10.417
2026-01-28 16:40:54,1.26,-0.295,-10.349
2026-01-28 16:40:54,1.377,-0.239,-10.417
2026-01-28 16:40:54,1.277,-0.332,-10.432
2026-01-28 16:40:54,1.213,-0.342,-10.549
2026-01-28 16:40:54,1.179,-0.31,-10.364
2026-01-28 16:40:54,1.423,-0.286,-10.42
2026-01-28 16:40:54,1.277,-0.281,-10.378
2026-01-28 16:40:54,1.377,-0.281,-10.449
2026-01-28 16:40:54,1.44,-0.259,-10.391
2026-01-28 16:40:54,1.387,-0.249,-10.366
2026-01-28 16:40:54,1.387,-0.176,-10.432
2026-01-28 16:40:54,1.348,-0.273,-10.415
2026-01-28 16:40:54,1.287,-0.312,-10.483
2026-01-28 16:40:54,1.367,-0.273,-10.417
2026-01-28 16:40:54,1.211,-0.334,-10.471
2026-01-28 16:40:54,1.404,-0.208,-10.332
2026-01-28 16:40:54,1.355,-0.249,-10.413
2026-01-28 16:40:54,1.272,-0.322,-10.349
2026-01-28 16:40:54,1.255,-0.256,-10.449
2026-01-28 16:40:54,1.389,-0.188,-10.327
2026-01-28 16:40:54,1.25,-0.317,-10.396
2026-01-28 16:40:54,1.172,-0.315,-10.479
2026-01-28 16:40:54,1.348,-0.305,-10.437
2026-01-28 16:40:54,1.443,-0.244,-10.295
2026-01-28 16:40:55,1.27,-0.256,-10.359
2026-01-28 16:40:55,1.316,-0.256,-10.305
2026-01-28 16:40:55,1.24,-0.325,-10.449
2026-01-28 16:40:55,1.206,-0.305,-10.393
2026-01-28 16:40:55,1.384,-0.234,-10.4
2026-01-28 16:40:55,1.189,-0.315,-10.41
2026-01-28 16:40:55,1.243,-0.325,-10.435
2026-01-28 16:40:55,1.487,-0.208,-10.356
2026-01-28 16:40:55,1.218,-0.322,-10.359
2026-01-28 16:40:55,1.411,-0.237,-10.437
2026-01-28 16:40:55,1.262,-0.208,-10.388
2026-01-28 16:40:55,1.35,-0.281,-10.43
2026-01-28 16:40:55,1.328,-0.315,-10.4
2026-01-28 16:40:55,1.294,-0.237,-10.415
2026-01-28 16:40:55,1.182,-0.22,-10.444
2026-01-28 16:40:55,1.433,-0.288,-10.413
2026-01-28 16:40:55,1.26,-0.295,-10.386
2026-01-28 16:40:55,1.311,-0.31,-10.413
2026-01-28 16:40:55,1.379,-0.278,-10.317
2026-01-28 16:40:55,1.377,-0.269,-10.391
2026-01-28 16:40:55,1.24,-0.239,-10.386
2026-01-28 16:40:55,1.406,-0.205,-10.3
2026-01-28 16:40:55,1.306,-0.264,-10.432
2026-01-28 16:40:55,1.372,-0.178,-10.444
2026-01-28 16:40:55,1.252,-0.264,-10.437
2026-01-28 16:40:55,1.401,-0.229,-10.41
2026-01-28 16:40:55,1.416,-0.242,-10.359
2026-01-28 16:40:55,1.233,-0.305,-10.352
2026-01-28 16:40:55,1.216,-0.322,-10.439
2026-01-28 16:40:55,1.326,-0.286,-10.42
2026-01-28 16:40:55,1.353,-0.212,-10.437
2026-01-28 16:40:55,1.458,-0.222,-10.356
2026-01-28 16:40:55,1.235,-0.295,-10.452
2026-01-28 16:40:55,1.375,-0.193,-10.432
2026-01-28 16:40:55,1.292,-0.325,-10.371
2026-01-28 16:40:55,1.213,-0.269,-10.457
2026-01-28 16:40:55,1.177,-0.271,-10.391
2026-01-28 16:40:55,1.16,-0.327,-10.466
2026-01-28 16:40:55,1.443,-0.266,-10.381
2026-01-28 16:40:55,1.294,-0.195,-10.505
2026-01-28 16:40:55,1.46,-0.227,-10.437
2026-01-28 16:40:55,1.321,-0.259,-10.422
2026-01-28 16:40:55,1.27,-0.374,-10.417
2026-01-28 16:40:55,1.26,-0.3,-10.398
2026-01-28 16:40:55,1.467,-0.232,-10.344
2026-01-28 16:40:55,1.44,-0.225,-10.371
2026-01-28 16:40:55,1.375,-0.239,-10.371
2026-01-28 16:40:55,1.331,-0.234,-10.374
2026-01-28 16:40:55,1.282,-0.283,-10.432
2026-01-28 16:40:55,1.428,-0.227,-10.437
2026-01-28 16:40:55,1.353,-0.291,-10.442
2026-01-28 16:40:55,1.248,-0.295,-10.498
2026-01-28 16:40:55,1.526,-0.208,-10.388
2026-01-28 16:40:55,1.272,-0.254,-10.479
2026-01-28 16:40:55,1.414,-0.222,-10.354
2026-01-28 16:40:55,1.348,-0.19,-10.513
2026-01-28 16:40:55,1.257,-0.325,-10.327
2026-01-28 16:40:55,1.36,-0.249,-10.449
2026-01-28 16:40:55,1.277,-0.317,-10.474
2026-01-28 16:40:55,1.233,-0.31,-10.459
2026-01-28 16:40:55,1.326,-0.266,-10.383
2026-01-28 16:40:55,1.211,-0.361,-10.435
2026-01-28 16:40:55,1.436,-0.22,-10.371
2026-01-28 16:40:55,1.467,-0.212,-10.337
2026-01-28 16:40:55,1.252,-0.366,-10.432
2026-01-28 16:40:55,1.465,-0.269,-10.347
2026-01-28 16:40:55,1.226,-0.325,-10.352
2026-01-28 16:40:55,1.189,-0.325,-10.325
2026-01-28 16:40:55,1.396,-0.242,-10.41
2026-01-28 16:40:55,1.267,-0.254,-10.435
2026-01-28 16:40:55,1.155,-0.266,-10.376
2026-01-28 16:40:55,1.187,-0.332,-10.283
2026-01-28 16:40:55,1.37,-0.278,-10.378
2026-01-28 16:40:55,1.292,-0.264,-10.542
2026-01-28 16:40:55,1.396,-0.227,-10.312
2026-01-28 16:40:55,1.365,-0.261,-10.383
2026-01-28 16:40:55,1.204,-0.308,-10.403
2026-01-28 16:40:55,1.379,-0.234,-10.364
2026-01-28 16:40:55,1.304,-0.278,-10.41
2026-01-28 16:40:55,1.238,-0.278,-10.459
2026-01-28 16:40:55,1.426,-0.242,-10.398
2026-01-28 16:40:55,1.274,-0.339,-10.476
2026-01-28 16:40:55,1.245,-0.31,-10.417
2026-01-28 16:40:55,1.418,-0.239,-10.356
2026-01-28 16:40:55,1.318,-0.249,-10.371
2026-01-28 16:40:55,1.494,-0.188,-10.361
2026-01-28 16:40:55,1.262,-0.334,-10.435
2026-01-28 16:40:55,1.423,-0.298,-10.403
2026-01-28 16:40:55,1.277,-0.261,-10.449
2026-01-28 16:40:55,1.255,-0.276,-10.369
2026-01-28 16:40:55,1.445,-0.232,-10.479
2026-01-28 16:40:56,1.477,-0.291,-10.366
2026-01-28 16:40:56,1.274,-0.259,-10.359
2026-01-28 16:40:56,1.357,-0.237,-10.337
2026-01-28 16:40:56,1.418,-0.227,-10.444
2026-01-28 16:40:56,1.243,-0.322,-10.41
2026-01-28 16:40:56,1.311,-0.217,-10.386
2026-01-28 16:40:56,1.228,-0.273,-10.442
2026-01-28 16:40:56,1.384,-0.19,-10.537
2026-01-28 16:40:56,1.37,-0.295,-10.515
2026-01-28 16:40:56,1.418,-0.278,-10.361
2026-01-28 16:40:56,1.211,-0.276,-10.32
2026-01-28 16:40:56,1.262,-0.305,-10.4
2026-01-28 16:40:56,1.282,-0.288,-10.53
2026-01-28 16:40:56,1.392,-0.227,-10.364
2026-01-28 16:40:56,1.272,-0.349,-10.454
2026-01-28 16:40:56,1.169,-0.327,-10.471
2026-01-28 16:40:56,1.226,-0.325,-10.349
2026-01-28 16:40:56,1.423,-0.171,-10.317
2026-01-28 16:40:56,1.213,-0.322,-10.518
2026-01-28 16:40:56,1.331,-0.283,-10.476
2026-01-28 16:40:56,1.428,-0.195,-10.386
2026-01-28 16:40:56,1.355,-0.239,-10.405
2026-01-28 16:40:56,1.428,-0.195,-10.396
2026-01-28 16:40:56,1.353,-0.295,-10.454
2026-01-28 16:40:56,1.184,-0.317,-10.435
2026-01-28 16:40:56,1.36,-0.227,-10.386
2026-01-28 16:40:56,1.462,-0.188,-10.41
2026-01-28 16:40:56,1.196,-0.298,-10.439
2026-01-28 16:40:56,1.443,-0.193,-10.317
2026-01-28 16:40:56,1.44,-0.283,-10.354
2026-01-28 16:40:56,1.213,-0.342,-10.32
2026-01-28 16:40:56,1.323,-0.242,-10.366
2026-01-28 16:40:56,1.323,-0.298,-10.398
2026-01-28 16:40:56,1.191,-0.259,-10.381
2026-01-28 16:40:56,1.238,-0.312,-10.464
2026-01-28 16:40:56,1.387,-0.149,-10.415
2026-01-28 16:40:56,1.365,-0.259,-10.376
2026-01-28 16:40:56,1.367,-0.251,-10.464
2026-01-28 16:40:56,1.196,-0.342,-10.422
2026-01-28 16:40:56,1.411,-0.21,-10.408
2026-01-28 16:40:56,1.487,-0.205,-10.332
2026-01-28 16:40:56,1.306,-0.261,-10.317
2026-01-28 16:40:56,1.328,-0.266,-10.405
2026-01-28 16:40:56,1.323,-0.303,-10.403
2026-01-28 16:40:56,1.438,-0.261,-10.393
2026-01-28 16:40:56,1.384,-0.242,-10.295
2026-01-28 16:40:56,1.426,-0.242,-10.461
2026-01-28 16:40:56,1.345,-0.288,-10.374
2026-01-28 16:40:56,1.357,-0.359,-10.378
2026-01-28 16:40:56,1.387,-0.244,-10.459
2026-01-28 16:40:56,1.436,-0.251,-10.337
2026-01-28 16:40:56,1.392,-0.212,-10.347
2026-01-28 16:40:56,1.211,-0.281,-10.391
2026-01-28 16:40:56,1.453,-0.22,-10.371
2026-01-28 16:40:56,1.448,-0.154,-10.349
2026-01-28 16:40:56,1.316,-0.325,-10.413
2026-01-28 16:40:56,1.431,-0.273,-10.417
2026-01-28 16:40:56,1.353,-0.266,-10.488
2026-01-28 16:40:56,1.284,-0.276,-10.454
2026-01-28 16:40:56,1.287,-0.33,-10.452
2026-01-28 16:40:56,1.279,-0.227,-10.359
2026-01-28 16:40:56,1.199,-0.237,-10.391
2026-01-28 16:40:56,1.345,-0.242,-10.388
2026-01-28 16:40:56,1.321,-0.273,-10.371
2026-01-28 16:40:56,1.392,-0.332,-10.459
2026-01-28 16:40:56,1.238,-0.269,-10.479
2026-01-28 16:40:56,1.455,-0.178,-10.381
2026-01-28 16:40:56,1.199,-0.32,-10.417
2026-01-28 16:40:56,1.206,-0.303,-10.383
2026-01-28 16:40:56,1.248,-0.291,-10.447
2026-01-28 16:40:56,1.394,-0.251,-10.276
2026-01-28 16:40:56,1.223,-0.305,-10.427
2026-01-28 16:40:56,1.213,-0.3,-10.366
2026-01-28 16:40:56,1.372,-0.269,-10.342
2026-01-28 16:40:56,1.211,-0.269,-10.447
2026-01-28 16:40:56,1.179,-0.322,-10.459
2026-01-28 16:40:56,1.36,-0.151,-10.32
2026-01-28 16:40:56,1.279,-0.269,-10.483
2026-01-28 16:40:56,1.404,-0.261,-10.371
2026-01-28 16:40:56,1.392,-0.291,-10.447
2026-01-28 16:40:56,1.245,-0.244,-10.417
2026-01-28 16:40:56,1.316,-0.31,-10.369
2026-01-28 16:40:56,1.394,-0.251,-10.369
2026-01-28 16:40:56,1.248,-0.278,-10.469
2026-01-28 16:40:56,1.218,-0.217,-10.408
2026-01-28 16:40:56,1.431,-0.203,-10.405
2026-01-28 16:40:56,1.465,-0.208,-10.422
2026-01-28 16:40:56,1.47,-0.193,-10.381
2026-01-28 16:40:56,1.152,-0.283,-10.444
2026-01-28 16:40:56,1.284,-0.327,-10.425
2026-01-28 16:40:56,1.328,-0.222,-10.386
2026-01-28 16:40:57,1.382,-0.254,-10.457
2026-01-28 16:40:57,1.194,-0.273,-10.396
2026-01-28 16:40:57,1.206,-0.295,-10.425
2026-01-28 16:40:57,1.26,-0.322,-10.376
2026-01-28 16:40:57,1.174,-0.283,-10.476
2026-01-28 16:40:57,1.272,-0.344,-10.457
2026-01-28 16:40:57,1.343,-0.234,-10.356
2026-01-28 16:40:57,1.392,-0.234,-10.479
2026-01-28 16:40:57,1.218,-0.229,-10.452
2026-01-28 16:40:57,1.201,-0.3,-10.413
2026-01-28 16:40:57,1.475,-0.273,-10.408
2026-01-28 16:40:57,1.377,-0.234,-10.466
2026-01-28 16:40:57,1.409,-0.195,-10.273
2026-01-28 16:40:57,1.458,-0.261,-10.359
2026-01-28 16:40:57,1.467,-0.19,-10.415
2026-01-28 16:40:57,1.316,-0.215,-10.405
2026-01-28 16:40:57,1.282,-0.193,-10.342
2026-01-28 16:40:57,1.404,-0.264,-10.437
2026-01-28 16:40:57,1.328,-0.291,-10.317
2026-01-28 16:40:57,1.477,-0.222,-10.386
2026-01-28 16:40:57,1.528,-0.21,-10.452
2026-01-28 16:40:57,1.465,-0.264,-10.364
2026-01-28 16:40:57,1.455,-0.217,-10.369
2026-01-28 16:40:57,1.309,-0.249,-10.371
2026-01-28 16:40:57,1.252,-0.344,-10.432
2026-01-28 16:40:57,1.421,-0.266,-10.464
2026-01-28 16:40:57,1.279,-0.256,-10.398
2026-01-28 16:40:57,1.406,-0.291,-10.347
2026-01-28 16:40:57,1.165,-0.276,-10.366
2026-01-28 16:40:57,1.301,-0.334,-10.41
2026-01-28 16:40:57,1.294,-0.325,-10.437
2026-01-28 16:40:57,1.301,-0.31,-10.439
2026-01-28 16:40:57,1.328,-0.276,-10.464
2026-01-28 16:40:57,1.177,-0.352,-10.378
2026-01-28 16:40:57,1.526,-0.251,-10.366
2026-01-28 16:40:57,1.35,-0.22,-10.374
2026-01-28 16:40:57,1.27,-0.337,-10.413
2026-01-28 16:40:57,1.392,-0.22,-10.381
2026-01-28 16:40:57,1.294,-0.273,-10.396
2026-01-28 16:40:57,1.187,-0.217,-10.369
2026-01-28 16:40:57,1.26,-0.266,-10.474
2026-01-28 16:40:57,1.306,-0.305,-10.364
2026-01-28 16:40:57,1.477,-0.249,-10.376
2026-01-28 16:40:57,1.248,-0.298,-10.361
2026-01-28 16:40:57,1.282,-0.354,-10.422
2026-01-28 16:40:57,1.279,-0.298,-10.515
2026-01-28 16:40:57,1.335,-0.227,-10.33
2026-01-28 16:40:57,1.184,-0.381,-10.461
2026-01-28 16:40:57,1.404,-0.225,-10.518
2026-01-28 16:40:57,1.194,-0.203,-10.405
2026-01-28 16:40:57,1.196,-0.276,-10.435
2026-01-28 16:40:57,1.509,-0.2,-10.312
2026-01-28 16:40:57,1.196,-0.305,-10.483
2026-01-28 16:40:57,1.082,-0.366,-10.432
2026-01-28 16:40:57,1.248,-0.325,-10.442
2026-01-28 16:40:57,1.367,-0.247,-10.371
2026-01-28 16:40:57,1.44,-0.269,-10.425
2026-01-28 16:40:57,1.379,-0.195,-10.425
2026-01-28 16:40:57,1.482,-0.288,-10.388
2026-01-28 16:40:57,1.506,-0.161,-10.369
2026-01-28 16:40:57,1.335,-0.176,-10.308
2026-01-28 16:40:57,1.516,-0.215,-10.374
2026-01-28 16:40:57,1.187,-0.315,-10.435
2026-01-28 16:40:57,1.323,-0.291,-10.315
2026-01-28 16:40:57,1.411,-0.244,-10.449
2026-01-28 16:40:57,1.221,-0.342,-10.293
2026-01-28 16:40:57,1.274,-0.288,-10.422
2026-01-28 16:40:57,1.311,-0.234,-10.408
2026-01-28 16:40:57,1.401,-0.295,-10.52
2026-01-28 16:40:57,1.401,-0.227,-10.374
2026-01-28 16:40:57,1.238,-0.276,-10.459
2026-01-28 16:40:57,1.348,-0.195,-10.393
2026-01-28 16:40:57,1.313,-0.305,-10.425
2026-01-28 16:40:57,1.392,-0.227,-10.315
2026-01-28 16:40:57,1.326,-0.239,-10.425
2026-01-28 16:40:57,1.218,-0.234,-10.408
2026-01-28 16:40:57,1.377,-0.278,-10.366
2026-01-28 16:40:57,1.394,-0.261,-10.371
2026-01-28 16:40:57,1.343,-0.227,-10.444
2026-01-28 16:40:57,1.128,-0.325,-10.427
2026-01-28 16:40:57,1.416,-0.181,-10.31
2026-01-28 16:40:57,1.389,-0.21,-10.457
2026-01-28 16:40:57,1.15,-0.286,-10.496
2026-01-28 16:40:57,1.191,-0.303,-10.471
2026-01-28 16:40:57,1.23,-0.317,-10.322
2026-01-28 16:40:57,1.467,-0.251,-10.459
2026-01-28 16:40:57,1.238,-0.249,-10.457
2026-01-28 16:40:57,1.479,-0.178,-10.374
2026-01-28 16:40:57,1.201,-0.298,-10.476
2026-01-28 16:40:57,1.274,-0.322,-10.359
2026-01-28 16:40:58,1.274,-0.332,-10.388
2026-01-28 16:40:58,1.377,-0.193,-10.42
2026-01-28 16:40:58,1.421,-0.251,-10.422
2026-01-28 16:40:58,1.228,-0.278,-10.41
2026-01-28 16:40:58,1.211,-0.325,-10.476
2026-01-28 16:40:58,1.418,-0.205,-10.425
2026-01-28 16:40:58,1.36,-0.21,-10.403
2026-01-28 16:40:58,1.316,-0.266,-10.359
2026-01-28 16:40:58,1.213,-0.261,-10.415
2026-01-28 16:40:58,1.465,-0.229,-10.388
2026-01-28 16:40:58,1.199,-0.283,-10.386
2026-01-28 16:40:58,1.274,-0.264,-10.447
2026-01-28 16:40:58,1.277,-0.269,-10.332
2026-01-28 16:40:58,1.274,-0.305,-10.415
2026-01-28 16:40:58,1.433,-0.168,-10.293
2026-01-28 16:40:58,1.194,-0.293,-10.364
2026-01-28 16:40:58,1.443,-0.283,-10.388
2026-01-28 16:40:58,1.169,-0.281,-10.439
2026-01-28 16:40:58,1.204,-0.305,-10.413
2026-01-28 16:40:58,1.367,-0.251,-10.398
2026-01-28 16:40:58,1.499,-0.242,-10.4
2026-01-28 16:40:58,1.245,-0.273,-10.425
2026-01-28 16:40:58,1.35,-0.261,-10.381
2026-01-28 16:40:58,1.392,-0.276,-10.417
2026-01-28 16:40:58,1.453,-0.266,-10.415
2026-01-28 16:40:58,1.292,-0.266,-10.378
2026-01-28 16:40:58,1.438,-0.212,-10.417
2026-01-28 16:40:58,1.36,-0.298,-10.396
2026-01-28 16:40:58,1.365,-0.256,-10.378
2026-01-28 16:40:58,1.401,-0.237,-10.349
2026-01-28 16:40:58,1.362,-0.261,-10.359
2026-01-28 16:40:58,1.416,-0.19,-10.432
2026-01-28 16:40:58,1.409,-0.3,-10.388
2026-01-28 16:40:58,1.404,-0.225,-10.403
2026-01-28 16:40:58,1.248,-0.286,-10.439
2026-01-28 16:40:58,1.37,-0.234,-10.415
2026-01-28 16:40:58,1.289,-0.283,-10.437
2026-01-28 16:40:58,1.265,-0.283,-10.366
2026-01-28 16:40:58,1.294,-0.273,-10.408
2026-01-28 16:40:58,1.284,-0.364,-10.322
2026-01-28 16:40:58,1.353,-0.198,-10.532
2026-01-28 16:40:58,1.172,-0.269,-10.432
2026-01-28 16:40:58,1.316,-0.208,-10.415
2026-01-28 16:40:58,1.475,-0.266,-10.405
2026-01-28 16:40:58,1.506,-0.225,-10.391
2026-01-28 16:40:58,1.277,-0.33,-10.505
2026-01-28 16:40:58,1.299,-0.317,-10.398
2026-01-28 16:40:58,1.252,-0.344,-10.449
2026-01-28 16:40:58,1.365,-0.298,-10.376
2026-01-28 16:40:58,1.389,-0.242,-10.344
2026-01-28 16:40:58,1.221,-0.291,-10.42
2026-01-28 16:40:58,1.265,-0.315,-10.452
2026-01-28 16:40:58,1.492,-0.171,-10.378
2026-01-28 16:40:58,1.411,-0.278,-10.439
2026-01-28 16:40:58,1.172,-0.339,-10.466
2026-01-28 16:40:58,1.196,-0.308,-10.444
2026-01-28 16:40:58,1.365,-0.234,-10.369
2026-01-28 16:40:58,1.377,-0.283,-10.374
2026-01-28 16:40:58,1.174,-0.283,-10.432
2026-01-28 16:40:58,1.404,-0.293,-10.361
2026-01-28 16:40:58,1.228,-0.273,-10.464
2026-01-28 16:40:58,1.328,-0.183,-10.337
2026-01-28 16:40:58,1.455,-0.203,-10.444
2026-01-28 16:40:58,1.416,-0.249,-10.342
2026-01-28 16:40:58,1.182,-0.31,-10.417
2026-01-28 16:40:58,1.448,-0.281,-10.32
2026-01-28 16:40:58,1.384,-0.239,-10.364
2026-01-28 16:40:58,1.372,-0.225,-10.286
2026-01-28 16:40:58,1.396,-0.271,-10.334
2026-01-28 16:40:58,1.499,-0.2,-10.339
2026-01-28 16:40:58,1.208,-0.281,-10.322
2026-01-28 16:40:58,1.216,-0.342,-10.437
2026-01-28 16:40:58,1.267,-0.295,-10.396
2026-01-28 16:40:58,1.394,-0.251,-10.459
2026-01-28 16:40:58,1.167,-0.281,-10.408
2026-01-28 16:40:58,1.428,-0.254,-10.417
2026-01-28 16:40:58,1.355,-0.19,-10.413
2026-01-28 16:40:58,1.24,-0.254,-10.425
2026-01-28 16:40:58,1.436,-0.244,-10.417
2026-01-28 16:40:58,1.304,-0.33,-10.427
2026-01-28 16:40:58,1.367,-0.327,-10.337
2026-01-28 16:40:58,1.338,-0.227,-10.405
2026-01-28 16:40:58,1.472,-0.234,-10.422
2026-01-28 16:40:58,1.189,-0.305,-10.396
2026-01-28 16:40:58,1.24,-0.288,-10.464
2026-01-28 16:40:58,1.382,-0.256,-10.454
2026-01-28 16:40:58,1.365,-0.208,-10.332
2026-01-28 16:40:58,1.311,-0.303,-10.332
2026-01-28 16:40:58,1.306,-0.237,-10.383
2026-01-28 16:40:58,1.257,-0.325,-10.342
2026-01-28 16:40:59,1.301,-0.312,-10.378
2026-01-28 16:40:59,1.404,-0.225,-10.464
2026-01-28 16:40:59,1.377,-0.239,-10.378
2026-01-28 16:40:59,1.138,-0.295,-10.459
2026-01-28 16:40:59,1.309,-0.288,-10.398
2026-01-28 16:40:59,1.172,-0.312,-10.291
2026-01-28 16:40:59,1.377,-0.215,-10.459
2026-01-28 16:40:59,1.355,-0.217,-10.359
2026-01-28 16:40:59,1.504,-0.242,-10.332
2026-01-28 16:40:59,1.379,-0.215,-10.376
2026-01-28 16:40:59,1.477,-0.225,-10.408
2026-01-28 16:40:59,1.433,-0.21,-10.405
2026-01-28 16:40:59,1.365,-0.266,-10.437
2026-01-28 16:40:59,1.199,-0.31,-10.437
2026-01-28 16:40:59,1.309,-0.298,-10.422
2026-01-28 16:40:59,1.44,-0.21,-10.339
2026-01-28 16:40:59,1.401,-0.288,-10.366
2026-01-28 16:40:59,1.333,-0.254,-10.42
2026-01-28 16:40:59,1.216,-0.291,-10.33
2026-01-28 16:40:59,1.331,-0.276,-10.408
2026-01-28 16:40:59,1.326,-0.256,-10.344
2026-01-28 16:40:59,1.321,-0.317,-10.383
2026-01-28 16:40:59,1.401,-0.205,-10.374
2026-01-28 16:40:59,1.143,-0.266,-10.303
2026-01-28 16:40:59,1.172,-0.322,-10.405
2026-01-28 16:40:59,1.375,-0.286,-10.413
2026-01-28 16:40:59,1.44,-0.244,-10.476
2026-01-28 16:40:59,1.282,-0.276,-10.364
2026-01-28 16:40:59,1.216,-0.232,-10.505
2026-01-28 16:40:59,1.191,-0.32,-10.42
2026-01-28 16:40:59,1.14,-0.332,-10.364
2026-01-28 16:40:59,1.34,-0.254,-10.417
2026-01-28 16:40:59,1.206,-0.291,-10.386
2026-01-28 16:40:59,1.196,-0.383,-10.447
2026-01-28 16:40:59,1.216,-0.31,-10.435
2026-01-28 16:40:59,1.519,-0.242,-10.393
2026-01-28 16:40:59,1.418,-0.249,-10.386
2026-01-28 16:40:59,1.372,-0.295,-10.457
2026-01-28 16:40:59,1.321,-0.32,-10.43
2026-01-28 16:40:59,1.35,-0.242,-10.334
2026-01-28 16:40:59,1.221,-0.244,-10.488
2026-01-28 16:40:59,1.326,-0.232,-10.33
2026-01-28 16:40:59,1.443,-0.242,-10.398
2026-01-28 16:40:59,1.191,-0.293,-10.464
2026-01-28 16:40:59,1.348,-0.325,-10.454
2026-01-28 16:40:59,1.482,-0.215,-10.369
2026-01-28 16:40:59,1.479,-0.212,-10.405
2026-01-28 16:40:59,1.262,-0.327,-10.4
2026-01-28 16:40:59,1.284,-0.249,-10.413
2026-01-28 16:40:59,1.206,-0.327,-10.359
2026-01-28 16:40:59,1.238,-0.303,-10.449
2026-01-28 16:40:59,1.313,-0.312,-10.432
2026-01-28 16:40:59,1.255,-0.281,-10.444
2026-01-28 16:40:59,1.387,-0.269,-10.435
2026-01-28 16:40:59,1.367,-0.234,-10.41
2026-01-28 16:40:59,1.353,-0.315,-10.369
2026-01-28 16:40:59,1.428,-0.215,-10.378
2026-01-28 16:40:59,1.272,-0.32,-10.396
2026-01-28 16:40:59,1.213,-0.308,-10.405
2026-01-28 16:40:59,1.213,-0.308,-10.415
2026-01-28 16:40:59,1.445,-0.203,-10.366
2026-01-28 16:40:59,1.348,-0.22,-10.391
2026-01-28 16:40:59,1.213,-0.295,-10.476
2026-01-28 16:40:59,1.223,-0.264,-10.437
2026-01-28 16:40:59,1.418,-0.273,-10.391
2026-01-28 16:40:59,1.392,-0.327,-10.452
2026-01-28 16:40:59,1.382,-0.251,-10.386
2026-01-28 16:40:59,1.37,-0.286,-10.383
2026-01-28 16:40:59,1.228,-0.344,-10.396
2026-01-28 16:40:59,1.445,-0.239,-10.344
2026-01-28 16:40:59,1.218,-0.325,-10.417
2026-01-28 16:40:59,1.367,-0.256,-10.391
2026-01-28 16:40:59,1.399,-0.293,-10.327
2026-01-28 16:40:59,1.155,-0.293,-10.41
2026-01-28 16:40:59,1.399,-0.149,-10.371
2026-01-28 16:40:59,1.255,-0.327,-10.398
2026-01-28 16:40:59,1.199,-0.352,-10.459
2026-01-28 16:40:59,1.382,-0.242,-10.432
2026-01-28 16:40:59,1.499,-0.249,-10.459
2026-01-28 16:40:59,1.289,-0.21,-10.344
2026-01-28 16:40:59,1.172,-0.344,-10.417
2026-01-28 16:40:59,1.221,-0.276,-10.43
2026-01-28 16:40:59,1.514,-0.259,-10.408
2026-01-28 16:40:59,1.189,-0.308,-10.4
2026-01-28 16:40:59,1.201,-0.31,-10.444
2026-01-28 16:40:59,1.382,-0.239,-10.388
2026-01-28 16:40:59,1.196,-0.354,-10.442
2026-01-28 16:40:59,1.34,-0.288,-10.432
2026-01-28 16:40:59,1.526,-0.21,-10.457
2026-01-28 16:40:59,1.318,-0.239,-10.352
2026-01-28 16:40:59,1.433,-0.217,-10.293
2026-01-28 16:40:59,1.487,-0.259,-10.381
2026-01-28 16:41:00,1.13,-0.305,-10.432
2026-01-28 16:41:00,1.292,-0.256,-10.42
2026-01-28 16:41:00,1.416,-0.176,-10.427
2026-01-28 16:41:00,1.492,-0.193,-10.369
2026-01-28 16:41:00,1.511,-0.193,-10.459
2026-01-28 16:41:00,1.343,-0.244,-10.364
2026-01-28 16:41:00,1.416,-0.244,-10.391
2026-01-28 16:41:00,1.36,-0.276,-10.42
2026-01-28 16:41:00,1.26,-0.276,-10.415
2026-01-28 16:41:00,1.353,-0.334,-10.452
2026-01-28 16:41:00,1.45,-0.195,-10.352
2026-01-28 16:41:00,1.108,-0.342,-10.476
2026-01-28 16:41:00,1.511,-0.151,-10.415
2026-01-28 16:41:00,1.167,-0.281,-10.444
2026-01-28 16:41:00,1.399,-0.286,-10.317
2026-01-28 16:41:00,1.467,-0.19,-10.266
2026-01-28 16:41:00,1.267,-0.237,-10.425
2026-01-28 16:41:00,1.45,-0.193,-10.369
2026-01-28 16:41:00,1.372,-0.33,-10.391
2026-01-28 16:41:00,1.284,-0.225,-10.344
2026-01-28 16:41:00,1.467,-0.229,-10.422
2026-01-28 16:41:00,1.216,-0.33,-10.43
2026-01-28 16:41:00,1.423,-0.159,-10.332
2026-01-28 16:41:00,1.409,-0.232,-10.349
2026-01-28 16:41:00,1.455,-0.232,-10.327
2026-01-28 16:41:00,1.545,-0.234,-10.393
2026-01-28 16:41:00,1.443,-0.195,-10.349
2026-01-28 16:41:00,1.453,-0.19,-10.454
2026-01-28 16:41:00,1.46,-0.227,-10.437
2026-01-28 16:41:00,1.233,-0.298,-10.286
2026-01-28 16:41:00,1.382,-0.242,-10.439
2026-01-28 16:41:00,1.345,-0.254,-10.4
2026-01-28 16:41:00,1.172,-0.342,-10.391
2026-01-28 16:41:00,1.345,-0.273,-10.398
2026-01-28 16:41:00,1.213,-0.303,-10.398
2026-01-28 16:41:00,1.47,-0.269,-10.444
2026-01-28 16:41:00,1.199,-0.293,-10.398
2026-01-28 16:41:00,1.287,-0.251,-10.354
2026-01-28 16:41:00,1.199,-0.288,-10.371
2026-01-28 16:41:00,1.213,-0.269,-10.378
2026-01-28 16:41:00,1.36,-0.237,-10.386
2026-01-28 16:41:00,1.182,-0.305,-10.398
2026-01-28 16:41:00,1.169,-0.278,-10.352
2026-01-28 16:41:00,1.196,-0.278,-10.315
2026-01-28 16:41:00,1.201,-0.312,-10.479
2026-01-28 16:41:00,1.174,-0.251,-10.471
2026-01-28 16:41:00,1.448,-0.168,-10.471
2026-01-28 16:41:00,1.355,-0.271,-10.349
2026-01-28 16:41:00,1.328,-0.264,-10.457
2026-01-28 16:41:00,1.394,-0.205,-10.403
2026-01-28 16:41:00,1.389,-0.195,-10.393
2026-01-28 16:41:00,1.189,-0.32,-10.366
2026-01-28 16:41:00,1.255,-0.242,-10.449
2026-01-28 16:41:00,1.326,-0.239,-10.452
2026-01-28 16:41:00,1.487,-0.247,-10.413
2026-01-28 16:41:00,1.201,-0.312,-10.432
2026-01-28 16:41:00,1.245,-0.288,-10.322
2026-01-28 16:41:00,1.196,-0.186,-10.447
2026-01-28 16:41:00,1.489,-0.234,-10.378
2026-01-28 16:41:00,1.436,-0.232,-10.417
2026-01-28 16:41:00,1.362,-0.291,-10.376
2026-01-28 16:41:00,1.382,-0.281,-10.415
2026-01-28 16:41:00,1.44,-0.176,-10.276
2026-01-28 16:41:00,1.208,-0.383,-10.508
2026-01-28 16:41:00,1.167,-0.256,-10.371
2026-01-28 16:41:00,1.179,-0.325,-10.432
2026-01-28 16:41:00,1.401,-0.215,-10.361
2026-01-28 16:41:00,1.328,-0.298,-10.457
2026-01-28 16:41:00,1.147,-0.325,-10.403
2026-01-28 16:41:00,1.37,-0.298,-10.337
2026-01-28 16:41:00,1.26,-0.322,-10.461
2026-01-28 16:41:00,1.44,-0.273,-10.437
2026-01-28 16:41:00,1.331,-0.298,-10.513
2026-01-28 16:41:00,1.323,-0.234,-10.388
2026-01-28 16:41:00,1.123,-0.303,-10.481
2026-01-28 16:41:00,1.345,-0.293,-10.461
2026-01-28 16:41:00,1.453,-0.244,-10.403
2026-01-28 16:41:00,1.191,-0.303,-10.293
2026-01-28 16:41:00,1.475,-0.256,-10.444
2026-01-28 16:41:00,1.113,-0.308,-10.366
2026-01-28 16:41:00,1.445,-0.22,-10.388
2026-01-28 16:41:00,1.333,-0.237,-10.464
2026-01-28 16:41:00,1.243,-0.317,-10.469
2026-01-28 16:41:00,1.514,-0.208,-10.356
2026-01-28 16:41:00,1.494,-0.217,-10.4
2026-01-28 16:41:00,1.37,-0.242,-10.405
2026-01-28 16:41:00,1.357,-0.244,-10.442
2026-01-28 16:41:00,1.335,-0.298,-10.488
2026-01-28 16:41:00,1.228,-0.315,-10.41
2026-01-28 16:41:00,1.426,-0.286,-10.3
2026-01-28 16:41:00,1.411,-0.222,-10.381
2026-01-28 16:41:01,1.367,-0.237,-10.388
2026-01-28 16:41:01,1.311,-0.271,-10.371
2026-01-28 16:41:01,1.404,-0.281,-10.332
2026-01-28 16:41:01,1.345,-0.188,-10.359
2026-01-28 16:41:01,1.196,-0.276,-10.415
2026-01-28 16:41:01,1.472,-0.247,-10.481
2026-01-28 16:41:01,1.292,-0.22,-10.366
2026-01-28 16:41:01,1.235,-0.283,-10.356
2026-01-28 16:41:01,1.394,-0.205,-10.4
2026-01-28 16:41:01,1.433,-0.208,-10.42
2026-01-28 16:41:01,1.267,-0.239,-10.339
2026-01-28 16:41:01,1.365,-0.225,-10.361
2026-01-28 16:41:01,1.426,-0.22,-10.41
2026-01-28 16:41:01,1.401,-0.22,-10.474
2026-01-28 16:41:01,1.384,-0.242,-10.422
2026-01-28 16:41:01,1.399,-0.234,-10.459
2026-01-28 16:41:01,1.375,-0.247,-10.393
2026-01-28 16:41:01,1.306,-0.251,-10.396
2026-01-28 16:41:01,1.133,-0.322,-10.42
2026-01-28 16:41:01,1.414,-0.266,-10.359
2026-01-28 16:41:01,1.367,-0.205,-10.403
2026-01-28 16:41:01,1.277,-0.31,-10.386
2026-01-28 16:41:01,1.392,-0.237,-10.417
2026-01-28 16:41:01,1.316,-0.203,-10.337
2026-01-28 16:41:01,1.167,-0.239,-10.442
2026-01-28 16:41:01,1.277,-0.291,-10.396
2026-01-28 16:41:01,1.428,-0.244,-10.352
2026-01-28 16:41:01,1.323,-0.271,-10.388
2026-01-28 16:41:01,1.24,-0.273,-10.435
2026-01-28 16:41:01,1.501,-0.222,-10.449
2026-01-28 16:41:01,1.35,-0.317,-10.405
2026-01-28 16:41:01,1.316,-0.249,-10.325
2026-01-28 16:41:01,1.306,-0.31,-10.442
2026-01-28 16:41:01,1.282,-0.278,-10.371
2026-01-28 16:41:01,1.311,-0.254,-10.356
2026-01-28 16:41:01,1.401,-0.234,-10.342
2026-01-28 16:41:01,1.394,-0.239,-10.476
2026-01-28 16:41:01,1.335,-0.293,-10.461
2026-01-28 16:41:01,1.47,-0.195,-10.398
2026-01-28 16:41:01,1.257,-0.186,-10.339
2026-01-28 16:41:01,1.23,-0.295,-10.396
2026-01-28 16:41:01,1.409,-0.22,-10.51
2026-01-28 16:41:01,1.501,-0.242,-10.256
2026-01-28 16:41:01,1.414,-0.271,-10.317
2026-01-28 16:41:01,1.404,-0.227,-10.481
2026-01-28 16:41:01,1.206,-0.276,-10.405
2026-01-28 16:41:01,1.189,-0.322,-10.398
2026-01-28 16:41:01,1.318,-0.266,-10.42
2026-01-28 16:41:01,1.401,-0.251,-10.481
2026-01-28 16:41:01,1.211,-0.315,-10.391
2026-01-28 16:41:01,1.326,-0.261,-10.537
2026-01-28 16:41:01,1.233,-0.256,-10.459
2026-01-28 16:41:01,1.277,-0.269,-10.461
2026-01-28 16:41:01,1.477,-0.19,-10.349
2026-01-28 16:41:01,1.304,-0.347,-10.425
2026-01-28 16:41:01,1.248,-0.264,-10.391
2026-01-28 16:41:01,1.272,-0.3,-10.444
2026-01-28 16:41:01,1.387,-0.198,-10.491
2026-01-28 16:41:01,1.372,-0.227,-10.366
2026-01-28 16:41:01,1.353,-0.31,-10.427
2026-01-28 16:41:01,1.277,-0.376,-10.447
2026-01-28 16:41:01,1.467,-0.22,-10.4
2026-01-28 16:41:01,1.138,-0.334,-10.327
2026-01-28 16:41:01,1.448,-0.259,-10.359
2026-01-28 16:41:01,1.382,-0.225,-10.405
2026-01-28 16:41:01,1.487,-0.203,-10.405
2026-01-28 16:41:01,1.365,-0.205,-10.41
2026-01-28 16:41:01,1.418,-0.312,-10.354
2026-01-28 16:41:01,1.458,-0.212,-10.403
2026-01-28 16:41:01,1.357,-0.266,-10.361
2026-01-28 16:41:01,1.426,-0.237,-10.444
2026-01-28 16:41:01,1.46,-0.22,-10.459
2026-01-28 16:41:01,1.46,-0.259,-10.439
2026-01-28 16:41:01,1.443,-0.288,-10.371
2026-01-28 16:41:01,1.306,-0.286,-10.415
2026-01-28 16:41:01,1.221,-0.266,-10.41
2026-01-28 16:41:01,1.23,-0.256,-10.366
2026-01-28 16:41:01,1.245,-0.317,-10.464
2026-01-28 16:41:01,1.313,-0.291,-10.4
2026-01-28 16:41:01,1.399,-0.293,-10.413
2026-01-28 16:41:01,1.472,-0.232,-10.339
2026-01-28 16:41:01,1.301,-0.266,-10.352
2026-01-28 16:41:01,1.326,-0.273,-10.398
2026-01-28 16:41:01,1.37,-0.22,-10.417
2026-01-28 16:41:01,1.348,-0.303,-10.471
2026-01-28 16:41:01,1.316,-0.361,-10.41
2026-01-28 16:41:01,1.445,-0.229,-10.391
2026-01-28 16:41:01,1.311,-0.315,-10.417
2026-01-28 16:41:01,1.25,-0.332,-10.425
2026-01-28 16:41:01,1.162,-0.271,-10.476
2026-01-28 16:41:01,1.431,-0.251,-10.444
2026-01-28 16:41:02,1.357,-0.266,-10.459
2026-01-28 16:41:02,1.353,-0.222,-10.347
2026-01-28 16:41:02,1.345,-0.303,-10.43
2026-01-28 16:41:02,1.274,-0.283,-10.366
2026-01-28 16:41:02,1.443,-0.254,-10.356
2026-01-28 16:41:02,1.392,-0.2,-10.527
2026-01-28 16:41:02,1.396,-0.234,-10.334
2026-01-28 16:41:02,1.426,-0.21,-10.452
2026-01-28 16:41:02,1.213,-0.273,-10.388
2026-01-28 16:41:02,1.282,-0.33,-10.356
2026-01-28 16:41:02,1.438,-0.239,-10.479
2026-01-28 16:41:02,1.36,-0.205,-10.352
2026-01-28 16:41:02,1.375,-0.225,-10.352
2026-01-28 16:41:02,1.313,-0.2,-10.41
2026-01-28 16:41:02,1.306,-0.249,-10.344
2026-01-28 16:41:02,1.353,-0.254,-10.491
2026-01-28 16:41:02,1.321,-0.308,-10.42
2026-01-28 16:41:02,1.467,-0.251,-10.459
2026-01-28 16:41:02,1.355,-0.181,-10.386
2026-01-28 16:41:02,1.228,-0.342,-10.378
2026-01-28 16:41:02,1.382,-0.19,-10.422
2026-01-28 16:41:02,1.213,-0.3,-10.491
2026-01-28 16:41:02,1.233,-0.295,-10.315
2026-01-28 16:41:02,1.357,-0.283,-10.356
2026-01-28 16:41:02,1.313,-0.264,-10.469
2026-01-28 16:41:02,1.34,-0.271,-10.408
2026-01-28 16:41:02,1.309,-0.281,-10.403
2026-01-28 16:41:02,1.462,-0.237,-10.366
2026-01-28 16:41:02,1.204,-0.376,-10.391
2026-01-28 16:41:02,1.372,-0.249,-10.469
2026-01-28 16:41:02,1.411,-0.256,-10.383
2026-01-28 16:41:02,1.343,-0.222,-10.388
2026-01-28 16:41:02,1.238,-0.247,-10.442
2026-01-28 16:41:02,1.282,-0.283,-10.383
2026-01-28 16:41:02,1.316,-0.339,-10.396
2026-01-28 16:41:02,1.423,-0.173,-10.354
2026-01-28 16:41:02,1.304,-0.283,-10.454
2026-01-28 16:41:02,1.274,-0.205,-10.317
2026-01-28 16:41:02,1.423,-0.242,-10.376
2026-01-28 16:41:02,1.245,-0.354,-10.386
2026-01-28 16:41:02,1.477,-0.254,-10.32
2026-01-28 16:41:02,1.367,-0.22,-10.317
2026-01-28 16:41:02,1.262,-0.337,-10.403
2026-01-28 16:41:02,1.262,-0.303,-10.359
2026-01-28 16:41:02,1.15,-0.308,-10.378
2026-01-28 16:41:02,1.35,-0.21,-10.347
2026-01-28 16:41:02,1.274,-0.291,-10.444
2026-01-28 16:41:02,1.257,-0.266,-10.42
2026-01-28 16:41:02,1.367,-0.237,-10.378
2026-01-28 16:41:02,1.301,-0.271,-10.398
2026-01-28 16:41:02,1.36,-0.251,-10.369
2026-01-28 16:41:02,1.404,-0.217,-10.371
2026-01-28 16:41:02,1.172,-0.374,-10.391
2026-01-28 16:41:02,1.245,-0.339,-10.43
2026-01-28 16:41:02,1.382,-0.244,-10.486
2026-01-28 16:41:02,1.36,-0.288,-10.381
2026-01-28 16:41:02,1.37,-0.33,-10.486
2026-01-28 16:41:02,1.309,-0.269,-10.386
2026-01-28 16:41:02,1.475,-0.229,-10.471
2026-01-28 16:41:02,1.436,-0.264,-10.469
2026-01-28 16:41:02,1.453,-0.244,-10.491
2026-01-28 16:41:02,1.294,-0.308,-10.291
2026-01-28 16:41:02,1.46,-0.2,-10.398
2026-01-28 16:41:02,1.545,-0.151,-10.3
2026-01-28 16:41:02,1.23,-0.317,-10.391
2026-01-28 16:41:02,1.433,-0.278,-10.386
2026-01-28 16:41:02,1.436,-0.225,-10.474
2026-01-28 16:41:02,1.274,-0.237,-10.344
2026-01-28 16:41:02,1.223,-0.3,-10.442
2026-01-28 16:41:02,1.301,-0.239,-10.4
2026-01-28 16:41:02,1.255,-0.264,-10.354
2026-01-28 16:41:02,1.311,-0.269,-10.315
2026-01-28 16:41:02,1.333,-0.293,-10.398
2026-01-28 16:41:02,1.382,-0.188,-10.415
2026-01-28 16:41:02,1.184,-0.273,-10.432
2026-01-28 16:41:02,1.24,-0.31,-10.359
2026-01-28 16:41:02,1.323,-0.234,-10.383
2026-01-28 16:41:02,1.528,-0.254,-10.493
2026-01-28 16:41:02,1.387,-0.198,-10.269
2026-01-28 16:41:02,1.309,-0.32,-10.435
2026-01-28 16:41:02,1.299,-0.283,-10.364
2026-01-28 16:41:02,1.36,-0.212,-10.374
2026-01-28 16:41:02,1.399,-0.244,-10.444
2026-01-28 16:41:02,1.299,-0.247,-10.361
2026-01-28 16:41:02,1.399,-0.283,-10.356
2026-01-28 16:41:02,1.353,-0.303,-10.471
2026-01-28 16:41:02,1.465,-0.339,-10.344
2026-01-28 16:41:02,1.387,-0.264,-10.449
2026-01-28 16:41:02,1.377,-0.254,-10.461
2026-01-28 16:41:02,1.174,-0.337,-10.366
2026-01-28 16:41:02,1.475,-0.239,-10.376
2026-01-28 16:41:03,1.157,-0.3,-10.437
2026-01-28 16:41:03,1.257,-0.259,-10.471
2026-01-28 16:41:03,1.277,-0.273,-10.383
2026-01-28 16:41:03,1.377,-0.21,-10.361
2026-01-28 16:41:03,1.345,-0.203,-10.42
2026-01-28 16:41:03,1.445,-0.251,-10.386
2026-01-28 16:41:03,1.44,-0.217,-10.386
2026-01-28 16:41:03,1.423,-0.205,-10.417
2026-01-28 16:41:03,1.372,-0.261,-10.366
2026-01-28 16:41:03,1.384,-0.225,-10.396
2026-01-28 16:41:03,1.27,-0.317,-10.374
2026-01-28 16:41:03,1.433,-0.266,-10.403
2026-01-28 16:41:03,1.292,-0.278,-10.454
2026-01-28 16:41:03,1.37,-0.288,-10.366
2026-01-28 16:41:03,1.367,-0.229,-10.483
2026-01-28 16:41:03,1.399,-0.261,-10.486
2026-01-28 16:41:03,1.343,-0.232,-10.386
2026-01-28 16:41:03,1.414,-0.298,-10.41
2026-01-28 16:41:03,1.24,-0.264,-10.308
2026-01-28 16:41:03,1.211,-0.312,-10.464
2026-01-28 16:41:03,1.47,-0.286,-10.33
2026-01-28 16:41:03,1.467,-0.186,-10.413
2026-01-28 16:41:03,1.331,-0.31,-10.486
2026-01-28 16:41:03,1.248,-0.3,-10.378
2026-01-28 16:41:03,1.382,-0.347,-10.444
2026-01-28 16:41:03,1.282,-0.276,-10.383
2026-01-28 16:41:03,1.323,-0.264,-10.378
2026-01-28 16:41:03,1.438,-0.21,-10.403
2026-01-28 16:41:03,1.509,-0.217,-10.435
2026-01-28 16:41:03,1.279,-0.266,-10.408
2026-01-28 16:41:03,1.309,-0.273,-10.308
2026-01-28 16:41:03,1.389,-0.212,-10.461
2026-01-28 16:41:03,1.489,-0.227,-10.361
2026-01-28 16:41:03,1.135,-0.344,-10.344
2026-01-28 16:41:03,1.416,-0.242,-10.483
2026-01-28 16:41:03,1.304,-0.249,-10.439
2026-01-28 16:41:03,1.401,-0.244,-10.327
2026-01-28 16:41:03,1.313,-0.298,-10.474
2026-01-28 16:41:03,1.257,-0.303,-10.459
2026-01-28 16:41:03,1.257,-0.3,-10.4
2026-01-28 16:41:03,1.292,-0.31,-10.298
2026-01-28 16:41:03,1.133,-0.269,-10.491
2026-01-28 16:41:03,1.367,-0.205,-10.376
2026-01-28 16:41:03,1.396,-0.264,-10.439
2026-01-28 16:41:03,1.445,-0.225,-10.452
2026-01-28 16:41:03,1.382,-0.3,-10.435
2026-01-28 16:41:03,1.377,-0.32,-10.349
2026-01-28 16:41:03,1.348,-0.295,-10.417
2026-01-28 16:41:03,1.44,-0.276,-10.383
2026-01-28 16:41:03,1.243,-0.317,-10.425
2026-01-28 16:41:03,1.404,-0.242,-10.342
2026-01-28 16:41:03,1.299,-0.273,-10.493
2026-01-28 16:41:03,1.375,-0.32,-10.488
2026-01-28 16:41:03,1.204,-0.254,-10.496
2026-01-28 16:41:03,1.277,-0.312,-10.386
2026-01-28 16:41:03,1.333,-0.3,-10.369
2026-01-28 16:41:03,1.345,-0.276,-10.435
2026-01-28 16:41:03,1.301,-0.364,-10.52
2026-01-28 16:41:03,1.484,-0.208,-10.305
2026-01-28 16:41:03,1.267,-0.276,-10.413
2026-01-28 16:41:03,1.448,-0.183,-10.498
2026-01-28 16:41:03,1.47,-0.21,-10.356
2026-01-28 16:41:03,1.375,-0.269,-10.374
2026-01-28 16:41:03,1.294,-0.349,-10.398
2026-01-28 16:41:03,1.223,-0.298,-10.378
2026-01-28 16:41:03,1.37,-0.266,-10.386
2026-01-28 16:41:03,1.416,-0.232,-10.393
2026-01-28 16:41:03,1.318,-0.31,-10.269
2026-01-28 16:41:03,1.409,-0.237,-10.425
2026-01-28 16:41:03,1.34,-0.266,-10.315
2026-01-28 16:41:03,1.311,-0.291,-10.381
2026-01-28 16:41:03,1.392,-0.266,-10.391
2026-01-28 16:41:03,1.453,-0.225,-10.5
2026-01-28 16:41:03,1.438,-0.239,-10.386
2026-01-28 16:41:03,1.409,-0.217,-10.503
2026-01-28 16:41:03,1.428,-0.256,-10.415
2026-01-28 16:41:03,1.404,-0.242,-10.378
2026-01-28 16:41:03,1.409,-0.234,-10.398
2026-01-28 16:41:03,1.365,-0.256,-10.476
2026-01-28 16:41:03,1.252,-0.239,-10.432
2026-01-28 16:41:03,1.255,-0.264,-10.439
2026-01-28 16:41:03,1.23,-0.256,-10.398
2026-01-28 16:41:03,1.414,-0.254,-10.483
2026-01-28 16:41:03,1.172,-0.32,-10.383
2026-01-28 16:41:03,1.25,-0.342,-10.422
2026-01-28 16:41:03,1.316,-0.312,-10.43
2026-01-28 16:41:03,1.25,-0.308,-10.476
2026-01-28 16:41:03,1.116,-0.293,-10.483
2026-01-28 16:41:03,1.367,-0.254,-10.413
2026-01-28 16:41:03,1.45,-0.208,-10.417
2026-01-28 16:41:03,1.479,-0.212,-10.437
2026-01-28 16:41:04,1.433,-0.261,-10.422
2026-01-28 16:41:04,1.377,-0.159,-10.33
2026-01-28 16:41:04,1.47,-0.171,-10.479
2026-01-28 16:41:04,1.316,-0.198,-10.493
2026-01-28 16:41:04,1.316,-0.322,-10.437
2026-01-28 16:41:04,1.35,-0.212,-10.308
2026-01-28 16:41:04,1.279,-0.31,-10.432
2026-01-28 16:41:04,1.179,-0.256,-10.378
2026-01-28 16:41:04,1.145,-0.298,-10.356
2026-01-28 16:41:04,1.436,-0.254,-10.396
2026-01-28 16:41:04,1.272,-0.295,-10.378
2026-01-28 16:41:04,1.287,-0.298,-10.461
2026-01-28 16:41:04,1.282,-0.264,-10.479
2026-01-28 16:41:04,1.16,-0.283,-10.425
2026-01-28 16:41:04,1.16,-0.215,-10.422
2026-01-28 16:41:04,1.23,-0.3,-10.425
2026-01-28 16:41:04,1.431,-0.215,-10.417
2026-01-28 16:41:04,1.479,-0.234,-10.376
2026-01-28 16:41:04,1.401,-0.254,-10.452
2026-01-28 16:41:04,1.306,-0.247,-10.327
2026-01-28 16:41:04,1.179,-0.344,-10.352
2026-01-28 16:41:04,1.353,-0.21,-10.52
2026-01-28 16:41:04,1.423,-0.19,-10.454
2026-01-28 16:41:04,1.26,-0.217,-10.378
2026-01-28 16:41:04,1.455,-0.249,-10.403
2026-01-28 16:41:04,1.426,-0.19,-10.432
2026-01-28 16:41:04,1.448,-0.195,-10.366
2026-01-28 16:41:04,1.34,-0.203,-10.432
2026-01-28 16:41:04,1.306,-0.203,-10.493
2026-01-28 16:41:04,1.421,-0.203,-10.33
2026-01-28 16:41:04,1.284,-0.295,-10.378
2026-01-28 16:41:04,1.34,-0.261,-10.388
2026-01-28 16:41:04,1.187,-0.295,-10.371
2026-01-28 16:41:04,1.309,-0.281,-10.374
2026-01-28 16:41:04,1.458,-0.254,-10.405
2026-01-28 16:41:04,1.394,-0.305,-10.427
2026-01-28 16:41:04,1.245,-0.283,-10.364
2026-01-28 16:41:04,1.265,-0.305,-10.422
2026-01-28 16:41:04,1.382,-0.232,-10.444
2026-01-28 16:41:04,1.262,-0.242,-10.498
2026-01-28 16:41:04,1.226,-0.234,-10.264
2026-01-28 16:41:04,1.306,-0.239,-10.422
2026-01-28 16:41:04,1.382,-0.264,-10.349
2026-01-28 16:41:04,1.438,-0.261,-10.459
2026-01-28 16:41:04,1.465,-0.146,-10.378
2026-01-28 16:41:04,1.24,-0.298,-10.352
2026-01-28 16:41:04,1.453,-0.295,-10.442
2026-01-28 16:41:04,1.365,-0.32,-10.51
2026-01-28 16:41:04,1.448,-0.254,-10.376
2026-01-28 16:41:04,1.333,-0.271,-10.42
2026-01-28 16:41:04,1.353,-0.298,-10.396
2026-01-28 16:41:04,1.316,-0.269,-10.386
2026-01-28 16:41:04,1.167,-0.251,-10.366
2026-01-28 16:41:04,1.321,-0.256,-10.486
2026-01-28 16:41:04,1.357,-0.273,-10.344
2026-01-28 16:41:04,1.27,-0.229,-10.388
2026-01-28 16:41:04,1.353,-0.32,-10.398
2026-01-28 16:41:04,1.37,-0.259,-10.383
2026-01-28 16:41:04,1.199,-0.322,-10.457
2026-01-28 16:41:04,1.436,-0.232,-10.457
2026-01-28 16:41:04,1.401,-0.286,-10.452
2026-01-28 16:41:04,1.375,-0.283,-10.444
2026-01-28 16:41:04,1.375,-0.22,-10.435
2026-01-28 16:41:04,1.228,-0.315,-10.339
2026-01-28 16:41:04,1.399,-0.256,-10.359
2026-01-28 16:41:04,1.411,-0.171,-10.537
2026-01-28 16:41:04,1.255,-0.334,-10.354
2026-01-28 16:41:04,1.204,-0.276,-10.359
2026-01-28 16:41:04,1.27,-0.22,-10.442
2026-01-28 16:41:04,1.316,-0.249,-10.374
2026-01-28 16:41:04,1.331,-0.271,-10.374
2026-01-28 16:41:04,1.401,-0.251,-10.415
2026-01-28 16:41:04,1.353,-0.273,-10.4
2026-01-28 16:41:04,1.277,-0.286,-10.371
2026-01-28 16:41:04,1.409,-0.251,-10.427
2026-01-28 16:41:04,1.226,-0.339,-10.396
2026-01-28 16:41:04,1.348,-0.303,-10.393
2026-01-28 16:41:04,1.345,-0.278,-10.398
2026-01-28 16:41:04,1.421,-0.244,-10.339
2026-01-28 16:41:04,1.401,-0.215,-10.31
2026-01-28 16:41:04,1.287,-0.291,-10.378
2026-01-28 16:41:04,1.365,-0.32,-10.442
2026-01-28 16:41:04,1.228,-0.251,-10.386
2026-01-28 16:41:04,1.414,-0.305,-10.459
2026-01-28 16:41:04,1.384,-0.305,-10.439
2026-01-28 16:41:04,1.323,-0.291,-10.366
2026-01-28 16:41:04,1.436,-0.242,-10.454
2026-01-28 16:41:04,1.416,-0.2,-10.398
2026-01-28 16:41:04,1.409,-0.195,-10.466
2026-01-28 16:41:04,1.24,-0.283,-10.432
2026-01-28 16:41:04,1.228,-0.239,-10.417
2026-01-28 16:41:05,1.399,-0.232,-10.464
2026-01-28 16:41:05,1.272,-0.32,-10.378
2026-01-28 16:41:05,1.399,-0.239,-10.369
2026-01-28 16:41:05,1.292,-0.332,-10.376
2026-01-28 16:41:05,1.357,-0.249,-10.361
2026-01-28 16:41:05,1.309,-0.312,-10.43
2026-01-28 16:41:05,1.26,-0.276,-10.283
2026-01-28 16:41:05,1.45,-0.239,-10.317
2026-01-28 16:41:05,1.46,-0.234,-10.378
2026-01-28 16:41:05,1.375,-0.164,-10.388
2026-01-28 16:41:05,1.467,-0.205,-10.432
2026-01-28 16:41:05,1.255,-0.342,-10.483
2026-01-28 16:41:05,1.299,-0.312,-10.503
2026-01-28 16:41:05,1.45,-0.193,-10.474
2026-01-28 16:41:05,1.389,-0.269,-10.332
2026-01-28 16:41:05,1.184,-0.325,-10.396
2026-01-28 16:41:05,1.421,-0.269,-10.574
2026-01-28 16:41:05,1.409,-0.183,-10.471
2026-01-28 16:41:05,1.37,-0.242,-10.41
2026-01-28 16:41:05,1.331,-0.239,-10.422
2026-01-28 16:41:05,1.167,-0.308,-10.415
2026-01-28 16:41:05,1.34,-0.215,-10.417
2026-01-28 16:41:05,1.252,-0.264,-10.415
2026-01-28 16:41:05,1.482,-0.254,-10.452
2026-01-28 16:41:05,1.355,-0.225,-10.425
2026-01-28 16:41:05,1.313,-0.293,-10.398
2026-01-28 16:41:05,1.206,-0.393,-10.454
2026-01-28 16:41:05,1.455,-0.259,-10.405
2026-01-28 16:41:05,1.189,-0.3,-10.42
2026-01-28 16:41:05,1.289,-0.332,-10.366
2026-01-28 16:41:05,1.365,-0.205,-10.427
2026-01-28 16:41:05,1.379,-0.22,-10.305
2026-01-28 16:41:05,1.311,-0.181,-10.371
2026-01-28 16:41:05,1.338,-0.278,-10.43
2026-01-28 16:41:05,1.309,-0.217,-10.386
2026-01-28 16:41:05,1.389,-0.247,-10.417
2026-01-28 16:41:05,1.289,-0.293,-10.41
2026-01-28 16:41:05,1.426,-0.254,-10.298
2026-01-28 16:41:05,1.372,-0.22,-10.33
2026-01-28 16:41:05,1.189,-0.325,-10.442
2026-01-28 16:41:05,1.416,-0.237,-10.413
2026-01-28 16:41:05,1.267,-0.298,-10.42
2026-01-28 16:41:05,1.311,-0.298,-10.464
2026-01-28 16:41:05,1.44,-0.261,-10.415
2026-01-28 16:41:05,1.294,-0.269,-10.408
2026-01-28 16:41:05,1.301,-0.32,-10.391
2026-01-28 16:41:05,1.318,-0.256,-10.474
2026-01-28 16:41:05,1.382,-0.247,-10.344
2026-01-28 16:41:05,1.487,-0.21,-10.381
2026-01-28 16:41:05,1.45,-0.225,-10.298
2026-01-28 16:41:05,1.436,-0.269,-10.415
2026-01-28 16:41:05,1.292,-0.229,-10.398
2026-01-28 16:41:05,1.235,-0.339,-10.454
2026-01-28 16:41:05,1.445,-0.286,-10.312
2026-01-28 16:41:05,1.125,-0.291,-10.422
2026-01-28 16:41:05,1.221,-0.305,-10.459
2026-01-28 16:41:05,1.409,-0.31,-10.427
2026-01-28 16:41:05,1.128,-0.344,-10.391
2026-01-28 16:41:05,1.26,-0.261,-10.391
2026-01-28 16:41:05,1.252,-0.22,-10.398
2026-01-28 16:41:05,1.206,-0.256,-10.396
2026-01-28 16:41:05,1.338,-0.288,-10.354
2026-01-28 16:41:05,1.45,-0.276,-10.447
2026-01-28 16:41:05,1.348,-0.337,-10.486
2026-01-28 16:41:05,1.357,-0.271,-10.364
2026-01-28 16:41:05,1.306,-0.332,-10.452
2026-01-28 16:41:05,1.177,-0.332,-10.461
2026-01-28 16:41:05,1.191,-0.283,-10.398
2026-01-28 16:41:05,1.421,-0.271,-10.437
2026-01-28 16:41:05,1.379,-0.239,-10.415
2026-01-28 16:41:05,1.318,-0.281,-10.437
2026-01-28 16:41:05,1.294,-0.3,-10.398
2026-01-28 16:41:05,1.267,-0.188,-10.42
2026-01-28 16:41:05,1.37,-0.247,-10.342
2026-01-28 16:41:05,1.284,-0.203,-10.337
2026-01-28 16:41:05,1.213,-0.31,-10.3
2026-01-28 16:41:05,1.265,-0.293,-10.339
2026-01-28 16:41:05,1.421,-0.229,-10.43
2026-01-28 16:41:05,1.348,-0.22,-10.378
2026-01-28 16:41:05,1.35,-0.234,-10.471
2026-01-28 16:41:05,1.394,-0.19,-10.317
2026-01-28 16:41:05,1.255,-0.283,-10.396
2026-01-28 16:41:05,1.396,-0.186,-10.364
2026-01-28 16:41:05,1.294,-0.22,-10.481
2026-01-28 16:41:05,1.379,-0.249,-10.371
2026-01-28 16:41:05,1.309,-0.251,-10.339
2026-01-28 16:41:05,1.201,-0.247,-10.444
2026-01-28 16:41:05,1.445,-0.212,-10.422
2026-01-28 16:41:05,1.274,-0.303,-10.344
2026-01-28 16:41:05,1.37,-0.276,-10.391
2026-01-28 16:41:06,1.243,-0.266,-10.442
2026-01-28 16:41:06,1.172,-0.339,-10.413
2026-01-28 16:41:06,1.228,-0.305,-10.488
2026-01-28 16:41:06,1.394,-0.227,-10.298
2026-01-28 16:41:06,1.409,-0.269,-10.237
2026-01-28 16:41:06,1.299,-0.295,-10.442
2026-01-28 16:41:06,1.35,-0.278,-10.496
2026-01-28 16:41:06,1.44,-0.251,-10.403
2026-01-28 16:41:06,1.172,-0.352,-10.415
2026-01-28 16:41:06,1.445,-0.271,-10.32
2026-01-28 16:41:06,1.423,-0.239,-10.41
2026-01-28 16:41:06,1.394,-0.266,-10.33
2026-01-28 16:41:06,1.299,-0.291,-10.435
2026-01-28 16:41:06,1.436,-0.269,-10.437
2026-01-28 16:41:06,1.174,-0.225,-10.415
2026-01-28 16:41:06,1.152,-0.359,-10.381
2026-01-28 16:41:06,1.301,-0.251,-10.386
2026-01-28 16:41:06,1.47,-0.198,-10.417
2026-01-28 16:41:06,1.255,-0.269,-10.537
2026-01-28 16:41:06,1.304,-0.256,-10.339
2026-01-28 16:41:06,1.484,-0.178,-10.496
2026-01-28 16:41:06,1.414,-0.217,-10.388
2026-01-28 16:41:06,1.125,-0.327,-10.518
2026-01-28 16:41:06,1.233,-0.276,-10.332
2026-01-28 16:41:06,1.365,-0.305,-10.413
2026-01-28 16:41:06,1.26,-0.3,-10.452
2026-01-28 16:41:06,1.372,-0.247,-10.374
2026-01-28 16:41:06,1.433,-0.212,-10.422
2026-01-28 16:41:06,1.299,-0.249,-10.388
2026-01-28 16:41:06,1.248,-0.283,-10.474
2026-01-28 16:41:06,1.331,-0.32,-10.447
2026-01-28 16:41:06,1.211,-0.356,-10.361
2026-01-28 16:41:06,1.479,-0.168,-10.479
2026-01-28 16:41:06,1.26,-0.244,-10.496
2026-01-28 16:41:06,1.218,-0.32,-10.415
2026-01-28 16:41:06,1.46,-0.232,-10.51
2026-01-28 16:41:06,1.396,-0.195,-10.459
2026-01-28 16:41:06,1.304,-0.295,-10.542
2026-01-28 16:41:06,1.282,-0.312,-10.422
2026-01-28 16:41:06,1.372,-0.295,-10.415
2026-01-28 16:41:06,1.445,-0.283,-10.391
2026-01-28 16:41:06,1.306,-0.261,-10.447
2026-01-28 16:41:06,1.306,-0.278,-10.432
2026-01-28 16:41:06,1.37,-0.203,-10.415
2026-01-28 16:41:06,1.377,-0.195,-10.452
2026-01-28 16:41:06,1.26,-0.278,-10.415
2026-01-28 16:41:06,1.238,-0.342,-10.366
2026-01-28 16:41:06,1.196,-0.339,-10.393
2026-01-28 16:41:06,1.245,-0.356,-10.471
2026-01-28 16:41:06,1.392,-0.325,-10.391
2026-01-28 16:41:06,1.379,-0.247,-10.461
2026-01-28 16:41:06,1.243,-0.337,-10.469
2026-01-28 16:41:06,1.194,-0.259,-10.374
2026-01-28 16:41:06,1.187,-0.295,-10.444
2026-01-28 16:41:06,1.218,-0.249,-10.381
2026-01-28 16:41:06,1.23,-0.237,-10.391
2026-01-28 16:41:06,1.338,-0.269,-10.283
2026-01-28 16:41:06,1.309,-0.225,-10.449
2026-01-28 16:41:06,1.382,-0.217,-10.542
2026-01-28 16:41:06,1.428,-0.217,-10.278
2026-01-28 16:41:06,1.221,-0.356,-10.344
2026-01-28 16:41:06,1.301,-0.249,-10.361
2026-01-28 16:41:06,1.433,-0.232,-10.43
2026-01-28 16:41:06,1.245,-0.286,-10.396
2026-01-28 16:41:06,1.411,-0.215,-10.293
2026-01-28 16:41:06,1.318,-0.212,-10.286
2026-01-28 16:41:06,1.414,-0.21,-10.396
2026-01-28 16:41:06,1.284,-0.269,-10.354
2026-01-28 16:41:06,1.384,-0.266,-10.41
2026-01-28 16:41:06,1.24,-0.344,-10.393
2026-01-28 16:41:06,1.233,-0.33,-10.405
2026-01-28 16:41:06,1.316,-0.212,-10.364
2026-01-28 16:41:06,1.27,-0.339,-10.388
2026-01-28 16:41:06,1.157,-0.254,-10.325
2026-01-28 16:41:06,1.238,-0.254,-10.479
2026-01-28 16:41:06,1.406,-0.168,-10.298
2026-01-28 16:41:06,1.243,-0.261,-10.413
2026-01-28 16:41:06,1.423,-0.168,-10.405
2026-01-28 16:41:06,1.47,-0.244,-10.408
2026-01-28 16:41:06,1.382,-0.229,-10.449
2026-01-28 16:41:06,1.46,-0.281,-10.432
2026-01-28 16:41:06,1.25,-0.288,-10.474
2026-01-28 16:41:06,1.211,-0.31,-10.386
2026-01-28 16:41:06,1.323,-0.269,-10.327
2026-01-28 16:41:06,1.355,-0.325,-10.317
2026-01-28 16:41:06,1.277,-0.3,-10.488
2026-01-28 16:41:06,1.272,-0.237,-10.413
2026-01-28 16:41:06,1.37,-0.295,-10.366
2026-01-28 16:41:06,1.484,-0.293,-10.464
2026-01-28 16:41:06,1.416,-0.2,-10.308
2026-01-28 16:41:06,1.274,-0.281,-10.364
2026-01-28 16:41:07,1.394,-0.269,-10.396
2026-01-28 16:41:07,1.167,-0.344,-10.383
2026-01-28 16:41:07,1.265,-0.256,-10.332
2026-01-28 16:41:07,1.316,-0.308,-10.288
2026-01-28 16:41:07,1.34,-0.227,-10.474
2026-01-28 16:41:07,1.245,-0.227,-10.366
2026-01-28 16:41:07,1.206,-0.305,-10.427
2026-01-28 16:41:07,1.228,-0.288,-10.403
2026-01-28 16:41:07,1.267,-0.286,-10.354
2026-01-28 16:41:07,1.377,-0.281,-10.425
2026-01-28 16:41:07,1.331,-0.261,-10.398
2026-01-28 16:41:07,1.348,-0.364,-10.393
2026-01-28 16:41:07,1.433,-0.291,-10.439
2026-01-28 16:41:07,1.257,-0.266,-10.471
2026-01-28 16:41:07,1.262,-0.322,-10.276
2026-01-28 16:41:07,1.326,-0.242,-10.393
2026-01-28 16:41:07,1.326,-0.229,-10.393
2026-01-28 16:41:07,1.245,-0.308,-10.417
2026-01-28 16:41:07,1.216,-0.288,-10.371
2026-01-28 16:41:07,1.357,-0.251,-10.361
2026-01-28 16:41:07,1.34,-0.288,-10.432
2026-01-28 16:41:07,1.277,-0.327,-10.386
2026-01-28 16:41:07,1.414,-0.283,-10.352
2026-01-28 16:41:07,1.411,-0.283,-10.361
2026-01-28 16:41:07,1.375,-0.208,-10.427
2026-01-28 16:41:07,1.355,-0.256,-10.459
2026-01-28 16:41:07,1.211,-0.295,-10.469
2026-01-28 16:41:07,1.277,-0.22,-10.461
2026-01-28 16:41:07,1.418,-0.234,-10.479
2026-01-28 16:41:07,1.389,-0.208,-10.332
2026-01-28 16:41:07,1.223,-0.31,-10.425
2026-01-28 16:41:07,1.309,-0.261,-10.408
2026-01-28 16:41:07,1.265,-0.31,-10.417
2026-01-28 16:41:07,1.306,-0.249,-10.488
2026-01-28 16:41:07,1.326,-0.298,-10.491
2026-01-28 16:41:07,1.323,-0.254,-10.349
2026-01-28 16:41:07,1.35,-0.244,-10.339
2026-01-28 16:41:07,1.257,-0.269,-10.359
2026-01-28 16:41:07,1.335,-0.291,-10.369
2026-01-28 16:41:07,1.27,-0.308,-10.371
2026-01-28 16:41:07,1.34,-0.31,-10.415
2026-01-28 16:41:07,1.289,-0.276,-10.408
2026-01-28 16:41:07,1.196,-0.327,-10.413
2026-01-28 16:41:07,1.311,-0.325,-10.435
2026-01-28 16:41:07,1.321,-0.212,-10.393
2026-01-28 16:41:07,1.453,-0.232,-10.376
2026-01-28 16:41:07,1.367,-0.242,-10.457
2026-01-28 16:41:07,1.453,-0.208,-10.364
2026-01-28 16:41:07,1.411,-0.269,-10.393
2026-01-28 16:41:07,1.379,-0.208,-10.439
2026-01-28 16:41:07,1.34,-0.32,-10.435
2026-01-28 16:41:07,1.433,-0.203,-10.417
2026-01-28 16:41:07,1.372,-0.247,-10.391
2026-01-28 16:41:07,1.448,-0.21,-10.398
2026-01-28 16:41:07,1.326,-0.264,-10.461
2026-01-28 16:41:07,1.321,-0.312,-10.396
2026-01-28 16:41:07,1.289,-0.273,-10.51
2026-01-28 16:41:07,1.355,-0.244,-10.352
2026-01-28 16:41:07,1.304,-0.251,-10.415
2026-01-28 16:41:07,1.355,-0.2,-10.332
2026-01-28 16:41:07,1.24,-0.278,-10.33
2026-01-28 16:41:07,1.292,-0.315,-10.444
2026-01-28 16:41:07,1.35,-0.247,-10.359
2026-01-28 16:41:07,1.401,-0.303,-10.354
2026-01-28 16:41:07,1.284,-0.249,-10.332
2026-01-28 16:41:07,1.353,-0.291,-10.43
2026-01-28 16:41:07,1.179,-0.283,-10.435
2026-01-28 16:41:07,1.445,-0.198,-10.291
2026-01-28 16:41:07,1.401,-0.232,-10.43
2026-01-28 16:41:07,1.387,-0.181,-10.386
2026-01-28 16:41:07,1.416,-0.254,-10.391
2026-01-28 16:41:07,1.477,-0.188,-10.471
2026-01-28 16:41:07,1.211,-0.276,-10.396
2026-01-28 16:41:07,1.27,-0.308,-10.515
2026-01-28 16:41:07,1.343,-0.269,-10.427
2026-01-28 16:41:07,1.384,-0.283,-10.454
2026-01-28 16:41:07,1.504,-0.281,-10.361
2026-01-28 16:41:07,1.379,-0.215,-10.437
2026-01-28 16:41:07,1.438,-0.286,-10.417
2026-01-28 16:41:07,1.284,-0.259,-10.403
2026-01-28 16:41:07,1.44,-0.217,-10.371
2026-01-28 16:41:07,1.257,-0.278,-10.391
2026-01-28 16:41:07,1.326,-0.276,-10.339
2026-01-28 16:41:07,1.428,-0.295,-10.466
2026-01-28 16:41:07,1.252,-0.281,-10.393
2026-01-28 16:41:07,1.489,-0.293,-10.381
2026-01-28 16:41:07,1.462,-0.271,-10.41
2026-01-28 16:41:07,1.331,-0.271,-10.444
2026-01-28 16:41:07,1.404,-0.234,-10.415
2026-01-28 16:41:07,1.343,-0.247,-10.376
2026-01-28 16:41:07,1.311,-0.251,-10.378
2026-01-28 16:41:08,1.416,-0.232,-10.42
2026-01-28 16:41:08,1.321,-0.291,-10.364
2026-01-28 16:41:08,1.213,-0.242,-10.398
2026-01-28 16:41:08,1.233,-0.303,-10.359
2026-01-28 16:41:08,1.306,-0.276,-10.41
2026-01-28 16:41:08,1.362,-0.278,-10.408
2026-01-28 16:41:08,1.436,-0.22,-10.388
2026-01-28 16:41:08,1.328,-0.256,-10.366
2026-01-28 16:41:08,1.248,-0.295,-10.51
2026-01-28 16:41:08,1.453,-0.244,-10.405
2026-01-28 16:41:08,1.313,-0.256,-10.378
2026-01-28 16:41:08,1.274,-0.237,-10.454
2026-01-28 16:41:08,1.34,-0.249,-10.417
2026-01-28 16:41:08,1.296,-0.22,-10.391
2026-01-28 16:41:08,1.411,-0.247,-10.334
2026-01-28 16:41:08,1.484,-0.254,-10.444
2026-01-28 16:41:08,1.223,-0.288,-10.381
2026-01-28 16:41:08,1.223,-0.249,-10.398
2026-01-28 16:41:08,1.411,-0.283,-10.483
2026-01-28 16:41:08,1.248,-0.298,-10.322
2026-01-28 16:41:08,1.519,-0.249,-10.369
2026-01-28 16:41:08,1.34,-0.269,-10.476
2026-01-28 16:41:08,1.431,-0.249,-10.454
2026-01-28 16:41:08,1.436,-0.203,-10.413
2026-01-28 16:41:08,1.528,-0.271,-10.349
2026-01-28 16:41:08,1.458,-0.225,-10.481
2026-01-28 16:41:08,1.333,-0.298,-10.459
2026-01-28 16:41:08,1.489,-0.198,-10.354
2026-01-28 16:41:08,1.404,-0.256,-10.457
2026-01-28 16:41:08,1.228,-0.208,-10.413
2026-01-28 16:41:08,1.309,-0.234,-10.457
2026-01-28 16:41:08,1.399,-0.215,-10.332
2026-01-28 16:41:08,1.289,-0.339,-10.386
2026-01-28 16:41:08,1.143,-0.308,-10.325
2026-01-28 16:41:08,1.211,-0.261,-10.449
2026-01-28 16:41:08,1.328,-0.295,-10.43
2026-01-28 16:41:08,1.382,-0.2,-10.403
2026-01-28 16:41:08,1.387,-0.176,-10.449
2026-01-28 16:41:08,1.25,-0.327,-10.344
2026-01-28 16:41:08,1.152,-0.298,-10.442
2026-01-28 16:41:08,1.218,-0.261,-10.359
2026-01-28 16:41:08,1.335,-0.247,-10.337
2026-01-28 16:41:08,1.272,-0.237,-10.366
2026-01-28 16:41:08,1.128,-0.298,-10.366
2026-01-28 16:41:08,1.372,-0.237,-10.398
2026-01-28 16:41:08,1.174,-0.325,-10.374
2026-01-28 16:41:08,1.248,-0.222,-10.437
2026-01-28 16:41:08,1.292,-0.266,-10.339
2026-01-28 16:41:08,1.387,-0.325,-10.435
2026-01-28 16:41:08,1.221,-0.361,-10.466
2026-01-28 16:41:08,1.287,-0.281,-10.454
2026-01-28 16:41:08,1.304,-0.278,-10.554
2026-01-28 16:41:08,1.353,-0.264,-10.303
2026-01-28 16:41:08,1.187,-0.217,-10.315
2026-01-28 16:41:08,1.436,-0.208,-10.452
2026-01-28 16:41:08,1.375,-0.237,-10.388
2026-01-28 16:41:08,1.367,-0.278,-10.388
2026-01-28 16:41:08,1.472,-0.273,-10.374
2026-01-28 16:41:08,1.37,-0.298,-10.378
2026-01-28 16:41:08,1.313,-0.281,-10.437
2026-01-28 16:41:08,1.252,-0.291,-10.479
2026-01-28 16:41:08,1.201,-0.242,-10.437
2026-01-28 16:41:08,1.353,-0.237,-10.342
2026-01-28 16:41:08,1.184,-0.237,-10.439
2026-01-28 16:41:08,1.235,-0.298,-10.491
2026-01-28 16:41:08,1.36,-0.232,-10.325
2026-01-28 16:41:08,1.555,-0.251,-10.396
2026-01-28 16:41:08,1.252,-0.303,-10.381
2026-01-28 16:41:08,1.26,-0.308,-10.464
2026-01-28 16:41:08,1.462,-0.281,-10.349
2026-01-28 16:41:08,1.309,-0.244,-10.444
2026-01-28 16:41:08,1.426,-0.22,-10.369
2026-01-28 16:41:08,1.321,-0.308,-10.427
2026-01-28 16:41:08,1.387,-0.247,-10.505
2026-01-28 16:41:08,1.25,-0.251,-10.405
2026-01-28 16:41:08,1.399,-0.215,-10.327
2026-01-28 16:41:08,1.226,-0.33,-10.454
2026-01-28 16:41:08,1.404,-0.259,-10.449
2026-01-28 16:41:08,1.387,-0.208,-10.408
2026-01-28 16:41:08,1.294,-0.205,-10.354
2026-01-28 16:41:08,1.382,-0.298,-10.33
2026-01-28 16:41:08,1.226,-0.342,-10.32
2026-01-28 16:41:08,1.243,-0.295,-10.381
2026-01-28 16:41:08,1.406,-0.254,-10.325
2026-01-28 16:41:08,1.23,-0.339,-10.43
2026-01-28 16:41:08,1.357,-0.225,-10.498
2026-01-28 16:41:08,1.438,-0.291,-10.386
2026-01-28 16:41:08,1.265,-0.266,-10.549
2026-01-28 16:41:08,1.233,-0.303,-10.391
2026-01-28 16:41:08,1.289,-0.286,-10.508
2026-01-28 16:41:09,1.257,-0.283,-10.371
2026-01-28 16:41:09,1.287,-0.254,-10.361
2026-01-28 16:41:09,1.321,-0.19,-10.403
2026-01-28 16:41:09,1.272,-0.31,-10.403
2026-01-28 16:41:09,1.279,-0.33,-10.295
2026-01-28 16:41:09,1.335,-0.283,-10.337
2026-01-28 16:41:09,1.382,-0.217,-10.396
2026-01-28 16:41:09,1.335,-0.259,-10.452
2026-01-28 16:41:09,1.348,-0.232,-10.381
2026-01-28 16:41:09,1.309,-0.254,-10.457
2026-01-28 16:41:09,1.353,-0.271,-10.371
2026-01-28 16:41:09,1.343,-0.239,-10.42
2026-01-28 16:41:09,1.262,-0.356,-10.359
2026-01-28 16:41:09,1.267,-0.249,-10.435
2026-01-28 16:41:09,1.218,-0.276,-10.386
2026-01-28 16:41:09,1.196,-0.293,-10.315
2026-01-28 16:41:09,1.379,-0.217,-10.471
2026-01-28 16:41:09,1.433,-0.244,-10.503
2026-01-28 16:41:09,1.235,-0.305,-10.408
2026-01-28 16:41:09,1.24,-0.293,-10.464
2026-01-28 16:41:09,1.191,-0.32,-10.432
2026-01-28 16:41:09,1.257,-0.276,-10.459
2026-01-28 16:41:09,1.257,-0.283,-10.464
2026-01-28 16:41:09,1.492,-0.227,-10.4
2026-01-28 16:41:09,1.318,-0.276,-10.496
2026-01-28 16:41:09,1.208,-0.317,-10.32
2026-01-28 16:41:09,1.428,-0.19,-10.264
2026-01-28 16:41:09,1.409,-0.276,-10.413
2026-01-28 16:41:09,1.245,-0.303,-10.425
2026-01-28 16:41:09,1.206,-0.234,-10.356
2026-01-28 16:41:09,1.362,-0.254,-10.398
2026-01-28 16:41:09,1.226,-0.256,-10.378
2026-01-28 16:41:09,1.318,-0.322,-10.471
2026-01-28 16:41:09,1.333,-0.256,-10.393
2026-01-28 16:41:09,1.245,-0.259,-10.493
2026-01-28 16:41:09,1.328,-0.254,-10.398
2026-01-28 16:41:09,1.416,-0.266,-10.413
2026-01-28 16:41:09,1.235,-0.332,-10.325
2026-01-28 16:41:09,1.323,-0.198,-10.425
2026-01-28 16:41:09,1.453,-0.2,-10.388
2026-01-28 16:41:09,1.292,-0.293,-10.437
2026-01-28 16:41:09,1.343,-0.242,-10.393
2026-01-28 16:41:09,1.357,-0.225,-10.459
2026-01-28 16:41:09,1.243,-0.32,-10.422
2026-01-28 16:41:09,1.318,-0.237,-10.447
2026-01-28 16:41:09,1.221,-0.339,-10.474
2026-01-28 16:41:09,1.379,-0.291,-10.408
2026-01-28 16:41:09,1.313,-0.271,-10.391
2026-01-28 16:41:09,1.345,-0.237,-10.449
2026-01-28 16:41:09,1.316,-0.276,-10.471
2026-01-28 16:41:09,1.174,-0.317,-10.371
2026-01-28 16:41:09,1.201,-0.315,-10.449
2026-01-28 16:41:09,1.331,-0.295,-10.498
2026-01-28 16:41:09,1.318,-0.303,-10.386
2026-01-28 16:41:09,1.252,-0.31,-10.444
2026-01-28 16:41:09,1.216,-0.266,-10.417
2026-01-28 16:41:09,1.394,-0.251,-10.413
2026-01-28 16:41:09,1.218,-0.317,-10.444
2026-01-28 16:41:09,1.304,-0.327,-10.41
2026-01-28 16:41:09,1.279,-0.349,-10.464
2026-01-28 16:41:09,1.399,-0.281,-10.303
2026-01-28 16:41:09,1.326,-0.261,-10.415
2026-01-28 16:41:09,1.47,-0.227,-10.491
2026-01-28 16:41:09,1.46,-0.259,-10.369
2026-01-28 16:41:09,1.221,-0.256,-10.437
2026-01-28 16:41:09,1.467,-0.217,-10.459
2026-01-28 16:41:09,1.196,-0.273,-10.376
2026-01-28 16:41:09,1.277,-0.266,-10.43
2026-01-28 16:41:09,1.284,-0.342,-10.371
2026-01-28 16:41:09,1.321,-0.286,-10.518
2026-01-28 16:41:09,1.331,-0.203,-10.415
2026-01-28 16:41:09,1.208,-0.283,-10.33
2026-01-28 16:41:09,1.353,-0.295,-10.388
2026-01-28 16:41:09,1.326,-0.305,-10.31
2026-01-28 16:41:09,1.311,-0.283,-10.417
2026-01-28 16:41:09,1.431,-0.178,-10.427
2026-01-28 16:41:09,1.316,-0.31,-10.352
2026-01-28 16:41:09,1.367,-0.217,-10.403
2026-01-28 16:41:09,1.306,-0.212,-10.308
2026-01-28 16:41:09,1.377,-0.21,-10.444
2026-01-28 16:41:09,1.414,-0.22,-10.383
2026-01-28 16:41:09,1.411,-0.234,-10.405
2026-01-28 16:41:09,1.367,-0.232,-10.493
2026-01-28 16:41:09,1.306,-0.242,-10.391
2026-01-28 16:41:09,1.311,-0.31,-10.442
2026-01-28 16:41:09,1.252,-0.249,-10.469
2026-01-28 16:41:09,1.182,-0.32,-10.43
2026-01-28 16:41:09,1.289,-0.232,-10.364
2026-01-28 16:41:09,1.27,-0.239,-10.383
2026-01-28 16:41:09,1.416,-0.208,-10.31
2026-01-28 16:41:09,1.377,-0.247,-10.376
2026-01-28 16:41:10,1.377,-0.212,-10.447
2026-01-28 16:41:10,1.284,-0.325,-10.354
2026-01-28 16:41:10,1.377,-0.312,-10.432
2026-01-28 16:41:10,1.44,-0.217,-10.398
2026-01-28 16:41:10,1.462,-0.264,-10.388
2026-01-28 16:41:10,1.414,-0.217,-10.444
2026-01-28 16:41:10,1.25,-0.342,-10.459
2026-01-28 16:41:10,1.401,-0.254,-10.376
2026-01-28 16:41:10,1.387,-0.21,-10.369
2026-01-28 16:41:10,1.406,-0.244,-10.391
2026-01-28 16:41:10,1.177,-0.312,-10.41
2026-01-28 16:41:10,1.333,-0.244,-10.432
2026-01-28 16:41:10,1.218,-0.291,-10.398
2026-01-28 16:41:10,1.289,-0.237,-10.347
2026-01-28 16:41:10,1.416,-0.276,-10.454
2026-01-28 16:41:10,1.382,-0.227,-10.425
2026-01-28 16:41:10,1.201,-0.305,-10.486
2026-01-28 16:41:10,1.267,-0.261,-10.452
2026-01-28 16:41:10,1.294,-0.212,-10.288
2026-01-28 16:41:10,1.284,-0.3,-10.325
2026-01-28 16:41:10,1.191,-0.303,-10.474
2026-01-28 16:41:10,1.438,-0.232,-10.413
2026-01-28 16:41:10,1.282,-0.273,-10.378
2026-01-28 16:41:10,1.226,-0.288,-10.435
2026-01-28 16:41:10,1.272,-0.317,-10.361
2026-01-28 16:41:10,1.313,-0.208,-10.317
2026-01-28 16:41:10,1.292,-0.334,-10.359
2026-01-28 16:41:10,1.467,-0.195,-10.425
2026-01-28 16:41:10,1.311,-0.305,-10.383
2026-01-28 16:41:10,1.46,-0.234,-10.378
2026-01-28 16:41:10,1.416,-0.21,-10.334
2026-01-28 16:41:10,1.25,-0.264,-10.405
2026-01-28 16:41:10,1.311,-0.239,-10.415
2026-01-28 16:41:10,1.235,-0.364,-10.4
2026-01-28 16:41:10,1.23,-0.276,-10.508
2026-01-28 16:41:10,1.233,-0.303,-10.435
2026-01-28 16:41:10,1.252,-0.305,-10.396
2026-01-28 16:41:10,1.379,-0.22,-10.422
2026-01-28 16:41:10,1.487,-0.291,-10.459
2026-01-28 16:41:10,1.545,-0.281,-10.381
2026-01-28 16:41:10,1.296,-0.283,-10.437
2026-01-28 16:41:10,1.306,-0.239,-10.471
2026-01-28 16:41:10,1.436,-0.21,-10.439
2026-01-28 16:41:10,1.396,-0.278,-10.4
2026-01-28 16:41:10,1.182,-0.281,-10.398
2026-01-28 16:41:10,1.299,-0.256,-10.369
2026-01-28 16:41:10,1.338,-0.251,-10.332
2026-01-28 16:41:10,1.44,-0.256,-10.422
2026-01-28 16:41:10,1.414,-0.22,-10.344
2026-01-28 16:41:10,1.311,-0.273,-10.398
2026-01-28 16:41:10,1.367,-0.256,-10.381
2026-01-28 16:41:10,1.201,-0.276,-10.31
2026-01-28 16:41:10,1.428,-0.261,-10.5
2026-01-28 16:41:10,1.384,-0.242,-10.449
2026-01-28 16:41:10,1.311,-0.337,-10.366
2026-01-28 16:41:10,1.318,-0.269,-10.344
2026-01-28 16:41:10,1.326,-0.278,-10.415
2026-01-28 16:41:10,1.301,-0.244,-10.417
2026-01-28 16:41:10,1.467,-0.259,-10.41
2026-01-28 16:41:10,1.46,-0.254,-10.444
2026-01-28 16:41:10,1.323,-0.281,-10.518
2026-01-28 16:41:10,1.309,-0.259,-10.361
2026-01-28 16:41:10,1.401,-0.256,-10.405
2026-01-28 16:41:10,1.35,-0.283,-10.366
2026-01-28 16:41:10,1.345,-0.244,-10.408
2026-01-28 16:41:10,1.426,-0.256,-10.432
2026-01-28 16:41:10,1.267,-0.291,-10.405
2026-01-28 16:41:10,1.382,-0.308,-10.425
2026-01-28 16:41:10,1.479,-0.181,-10.415
2026-01-28 16:41:10,1.433,-0.217,-10.378
2026-01-28 16:41:10,1.206,-0.295,-10.286
2026-01-28 16:41:10,1.272,-0.32,-10.547
2026-01-28 16:41:10,1.343,-0.259,-10.403
2026-01-28 16:41:10,1.384,-0.273,-10.32
2026-01-28 16:41:10,1.294,-0.317,-10.42
2026-01-28 16:41:10,1.377,-0.225,-10.449
2026-01-28 16:41:10,1.321,-0.2,-10.344
2026-01-28 16:41:10,1.499,-0.239,-10.437
2026-01-28 16:41:10,1.296,-0.317,-10.41
2026-01-28 16:41:10,1.382,-0.225,-10.427
2026-01-28 16:41:10,1.292,-0.325,-10.405
2026-01-28 16:41:10,1.384,-0.242,-10.381
2026-01-28 16:41:10,1.313,-0.334,-10.364
2026-01-28 16:41:10,1.399,-0.22,-10.457
2026-01-28 16:41:10,1.436,-0.22,-10.339
2026-01-28 16:41:10,1.304,-0.244,-10.264
2026-01-28 16:41:10,1.443,-0.203,-10.339
2026-01-28 16:41:10,1.414,-0.227,-10.396
2026-01-28 16:41:10,1.331,-0.254,-10.334
2026-01-28 16:41:10,1.248,-0.283,-10.466
2026-01-28 16:41:10,1.399,-0.291,-10.398
2026-01-28 16:41:11,1.458,-0.288,-10.281
2026-01-28 16:41:11,1.208,-0.315,-10.359
2026-01-28 16:41:11,1.396,-0.266,-10.41
2026-01-28 16:41:11,1.228,-0.293,-10.491
2026-01-28 16:41:11,1.416,-0.22,-10.386
2026-01-28 16:41:11,1.289,-0.312,-10.322
2026-01-28 16:41:11,1.365,-0.266,-10.378
2026-01-28 16:41:11,1.299,-0.256,-10.452
2026-01-28 16:41:11,1.218,-0.208,-10.356
2026-01-28 16:41:11,1.431,-0.256,-10.376
2026-01-28 16:41:11,1.34,-0.293,-10.376
2026-01-28 16:41:11,1.235,-0.283,-10.452
2026-01-28 16:41:11,1.267,-0.276,-10.422
2026-01-28 16:41:11,1.379,-0.332,-10.4
2026-01-28 16:41:11,1.362,-0.217,-10.437
2026-01-28 16:41:11,1.262,-0.327,-10.405
2026-01-28 16:41:11,1.382,-0.288,-10.378
2026-01-28 16:41:11,1.277,-0.3,-10.425
2026-01-28 16:41:11,1.36,-0.212,-10.405
2026-01-28 16:41:11,1.416,-0.205,-10.427
2026-01-28 16:41:11,1.328,-0.247,-10.452
2026-01-28 16:41:11,1.228,-0.325,-10.5
2026-01-28 16:41:11,1.357,-0.298,-10.415
2026-01-28 16:41:11,1.206,-0.3,-10.488
2026-01-28 16:41:11,1.162,-0.33,-10.408
2026-01-28 16:41:11,1.191,-0.3,-10.396
2026-01-28 16:41:11,1.462,-0.225,-10.374
2026-01-28 16:41:11,1.443,-0.234,-10.381
2026-01-28 16:41:11,1.448,-0.266,-10.393
2026-01-28 16:41:11,1.313,-0.286,-10.447
2026-01-28 16:41:11,1.379,-0.261,-10.42
2026-01-28 16:41:11,1.504,-0.181,-10.386
2026-01-28 16:41:11,1.387,-0.278,-10.471
2026-01-28 16:41:11,1.394,-0.244,-10.427
2026-01-28 16:41:11,1.448,-0.2,-10.337
2026-01-28 16:41:11,1.479,-0.276,-10.315
2026-01-28 16:41:11,1.292,-0.283,-10.381
2026-01-28 16:41:11,1.489,-0.212,-10.435
2026-01-28 16:41:11,1.377,-0.276,-10.334
2026-01-28 16:41:11,1.394,-0.273,-10.466
2026-01-28 16:41:11,1.213,-0.288,-10.398
2026-01-28 16:41:11,1.228,-0.276,-10.408
2026-01-28 16:41:11,1.353,-0.269,-10.439
2026-01-28 16:41:11,1.453,-0.166,-10.381
2026-01-28 16:41:11,1.272,-0.251,-10.398
2026-01-28 16:41:11,1.174,-0.322,-10.396
2026-01-28 16:41:11,1.23,-0.291,-10.391
2026-01-28 16:41:11,1.431,-0.256,-10.459
2026-01-28 16:41:11,1.418,-0.286,-10.432
2026-01-28 16:41:11,1.511,-0.249,-10.369
2026-01-28 16:41:11,1.287,-0.269,-10.3
2026-01-28 16:41:11,1.279,-0.276,-10.469
2026-01-28 16:41:11,1.345,-0.247,-10.403
2026-01-28 16:41:11,1.323,-0.251,-10.449
2026-01-28 16:41:11,1.375,-0.261,-10.371
2026-01-28 16:41:11,1.375,-0.186,-10.369
2026-01-28 16:41:11,1.213,-0.305,-10.439
2026-01-28 16:41:11,1.372,-0.239,-10.371
2026-01-28 16:41:11,1.428,-0.22,-10.461
2026-01-28 16:41:11,1.343,-0.195,-10.388
2026-01-28 16:41:11,1.213,-0.298,-10.408
2026-01-28 16:41:11,1.335,-0.278,-10.381
2026-01-28 16:41:11,1.238,-0.369,-10.403
2026-01-28 16:41:11,1.306,-0.312,-10.452
2026-01-28 16:41:11,1.172,-0.403,-10.393
2026-01-28 16:41:11,1.265,-0.222,-10.369
2026-01-28 16:41:11,1.34,-0.261,-10.352
2026-01-28 16:41:11,1.335,-0.332,-10.444
2026-01-28 16:41:11,1.309,-0.271,-10.398
2026-01-28 16:41:11,1.377,-0.239,-10.356
2026-01-28 16:41:11,1.194,-0.356,-10.396
2026-01-28 16:41:11,1.304,-0.259,-10.41
2026-01-28 16:41:11,1.299,-0.229,-10.334
2026-01-28 16:41:11,1.257,-0.312,-10.432
2026-01-28 16:41:11,1.511,-0.232,-10.427
2026-01-28 16:41:11,1.235,-0.352,-10.417
2026-01-28 16:41:11,1.196,-0.286,-10.386
2026-01-28 16:41:11,1.406,-0.271,-10.398
2026-01-28 16:41:11,1.519,-0.259,-10.396
2026-01-28 16:41:11,1.416,-0.259,-10.386
2026-01-28 16:41:11,1.309,-0.256,-10.298
2026-01-28 16:41:11,1.311,-0.254,-10.317
2026-01-28 16:41:11,1.265,-0.225,-10.312
2026-01-28 16:41:11,1.245,-0.315,-10.413
2026-01-28 16:41:11,1.25,-0.281,-10.337
2026-01-28 16:41:11,1.343,-0.227,-10.378
2026-01-28 16:41:11,1.294,-0.203,-10.408
2026-01-28 16:41:11,1.299,-0.295,-10.447
2026-01-28 16:41:11,1.394,-0.232,-10.405
2026-01-28 16:41:11,1.206,-0.349,-10.405
2026-01-28 16:41:11,1.306,-0.232,-10.405
2026-01-28 16:41:12,1.25,-0.322,-10.366
2026-01-28 16:41:12,1.289,-0.237,-10.371
2026-01-28 16:41:12,1.375,-0.281,-10.369
2026-01-28 16:41:12,1.309,-0.249,-10.417
2026-01-28 16:41:12,1.384,-0.278,-10.391
2026-01-28 16:41:12,1.477,-0.21,-10.452
2026-01-28 16:41:12,1.338,-0.288,-10.42
2026-01-28 16:41:12,1.245,-0.273,-10.447
2026-01-28 16:41:12,1.235,-0.305,-10.342
2026-01-28 16:41:12,1.492,-0.276,-10.41
2026-01-28 16:41:12,1.409,-0.239,-10.452
2026-01-28 16:41:12,1.433,-0.322,-10.469
2026-01-28 16:41:12,1.365,-0.293,-10.43
2026-01-28 16:41:12,1.318,-0.288,-10.405
2026-01-28 16:41:12,1.208,-0.305,-10.288
2026-01-28 16:41:12,1.428,-0.261,-10.425
2026-01-28 16:41:12,1.218,-0.3,-10.405
2026-01-28 16:41:12,1.479,-0.286,-10.496
2026-01-28 16:41:12,1.299,-0.21,-10.356
2026-01-28 16:41:12,1.411,-0.237,-10.366
2026-01-28 16:41:12,1.257,-0.283,-10.388
2026-01-28 16:41:12,1.438,-0.239,-10.322
2026-01-28 16:41:12,1.233,-0.381,-10.493
2026-01-28 16:41:12,1.372,-0.242,-10.33
2026-01-28 16:41:12,1.436,-0.227,-10.393
2026-01-28 16:41:12,1.201,-0.325,-10.361
2026-01-28 16:41:12,1.272,-0.344,-10.312
2026-01-28 16:41:12,1.333,-0.269,-10.369
2026-01-28 16:41:12,1.223,-0.278,-10.493
2026-01-28 16:41:12,1.306,-0.332,-10.461
2026-01-28 16:41:12,1.333,-0.244,-10.425
2026-01-28 16:41:12,1.365,-0.22,-10.386
2026-01-28 16:41:12,1.355,-0.215,-10.41
2026-01-28 16:41:12,1.26,-0.295,-10.352
2026-01-28 16:41:12,1.353,-0.254,-10.391
2026-01-28 16:41:12,1.326,-0.286,-10.508
2026-01-28 16:41:12,1.272,-0.266,-10.361
2026-01-28 16:41:12,1.338,-0.298,-10.444
2026-01-28 16:41:12,1.309,-0.276,-10.393
2026-01-28 16:41:12,1.423,-0.212,-10.344
2026-01-28 16:41:12,1.401,-0.264,-10.322
2026-01-28 16:41:12,1.296,-0.31,-10.41
2026-01-28 16:41:12,1.394,-0.259,-10.388
2026-01-28 16:41:12,1.416,-0.261,-10.403
2026-01-28 16:41:12,1.362,-0.291,-10.483
2026-01-28 16:41:12,1.372,-0.234,-10.491
2026-01-28 16:41:12,1.394,-0.244,-10.43
2026-01-28 16:41:12,1.375,-0.232,-10.459
2026-01-28 16:41:12,1.204,-0.327,-10.398
2026-01-28 16:41:12,1.279,-0.291,-10.461
2026-01-28 16:41:12,1.406,-0.229,-10.337
2026-01-28 16:41:12,1.375,-0.256,-10.374
2026-01-28 16:41:12,1.306,-0.237,-10.371
2026-01-28 16:41:12,1.333,-0.222,-10.417
2026-01-28 16:41:12,1.389,-0.239,-10.427
2026-01-28 16:41:12,1.357,-0.198,-10.317
2026-01-28 16:41:12,1.34,-0.266,-10.41
2026-01-28 16:41:12,1.211,-0.266,-10.447
2026-01-28 16:41:12,1.282,-0.303,-10.371
2026-01-28 16:41:12,1.306,-0.352,-10.41
2026-01-28 16:41:12,1.445,-0.269,-10.359
2026-01-28 16:41:12,1.284,-0.269,-10.425
2026-01-28 16:41:12,1.306,-0.305,-10.371
2026-01-28 16:41:12,1.24,-0.347,-10.454
2026-01-28 16:41:12,1.409,-0.212,-10.496
2026-01-28 16:41:12,1.436,-0.251,-10.447
2026-01-28 16:41:12,1.426,-0.22,-10.344
2026-01-28 16:41:12,1.304,-0.273,-10.408
2026-01-28 16:41:12,1.343,-0.271,-10.449
2026-01-28 16:41:12,1.218,-0.266,-10.442
2026-01-28 16:41:12,1.201,-0.33,-10.386
2026-01-28 16:41:12,1.404,-0.264,-10.42
2026-01-28 16:41:12,1.416,-0.242,-10.356
2026-01-28 16:41:12,1.436,-0.217,-10.444
2026-01-28 16:41:12,1.372,-0.281,-10.278
2026-01-28 16:41:12,1.223,-0.356,-10.42
2026-01-28 16:41:12,1.272,-0.261,-10.464
2026-01-28 16:41:12,1.455,-0.291,-10.361
2026-01-28 16:41:12,1.294,-0.295,-10.439
2026-01-28 16:41:12,1.226,-0.249,-10.43
2026-01-28 16:41:12,1.335,-0.232,-10.444
2026-01-28 16:41:12,1.428,-0.205,-10.349
2026-01-28 16:41:12,1.375,-0.276,-10.437
2026-01-28 16:41:12,1.174,-0.364,-10.461
2026-01-28 16:41:12,1.284,-0.315,-10.474
2026-01-28 16:41:12,1.194,-0.269,-10.276
2026-01-28 16:41:12,1.477,-0.203,-10.413
2026-01-28 16:41:12,1.228,-0.3,-10.413
2026-01-28 16:41:12,1.248,-0.261,-10.386
2026-01-28 16:41:12,1.255,-0.388,-10.432
2026-01-28 16:41:12,1.223,-0.332,-10.459
2026-01-28 16:41:13,1.243,-0.31,-10.359
2026-01-28 16:41:13,1.199,-0.276,-10.427
2026-01-28 16:41:13,1.296,-0.278,-10.361
2026-01-28 16:41:13,1.282,-0.266,-10.422
2026-01-28 16:41:13,1.436,-0.198,-10.442
2026-01-28 16:41:13,1.389,-0.195,-10.364
2026-01-28 16:41:13,1.367,-0.249,-10.408
2026-01-28 16:41:13,1.426,-0.259,-10.439
2026-01-28 16:41:13,1.387,-0.315,-10.383
2026-01-28 16:41:13,1.382,-0.2,-10.376
2026-01-28 16:41:13,1.416,-0.232,-10.378
2026-01-28 16:41:13,1.309,-0.288,-10.454
2026-01-28 16:41:13,1.274,-0.256,-10.415
2026-01-28 16:41:13,1.184,-0.288,-10.483
2026-01-28 16:41:13,1.428,-0.273,-10.498
2026-01-28 16:41:13,1.157,-0.342,-10.461
2026-01-28 16:41:13,1.223,-0.354,-10.391
2026-01-28 16:41:13,1.301,-0.269,-10.405
2026-01-28 16:41:13,1.201,-0.261,-10.374
2026-01-28 16:41:13,1.216,-0.303,-10.359
2026-01-28 16:41:13,1.426,-0.259,-10.281
2026-01-28 16:41:13,1.401,-0.203,-10.388
2026-01-28 16:41:13,1.26,-0.342,-10.447
2026-01-28 16:41:13,1.226,-0.327,-10.522
2026-01-28 16:41:13,1.335,-0.269,-10.435
2026-01-28 16:41:13,1.418,-0.278,-10.364
2026-01-28 16:41:13,1.292,-0.271,-10.359
2026-01-28 16:41:13,1.165,-0.286,-10.388
2026-01-28 16:41:13,1.479,-0.232,-10.425
2026-01-28 16:41:13,1.367,-0.366,-10.413
2026-01-28 16:41:13,1.252,-0.312,-10.374
2026-01-28 16:41:13,1.36,-0.256,-10.374
2026-01-28 16:41:13,1.304,-0.244,-10.403
2026-01-28 16:41:13,1.511,-0.212,-10.403
2026-01-28 16:41:13,1.377,-0.237,-10.366
2026-01-28 16:41:13,1.404,-0.232,-10.432
2026-01-28 16:41:13,1.335,-0.259,-10.432
2026-01-28 16:41:13,1.416,-0.225,-10.369
2026-01-28 16:41:13,1.24,-0.286,-10.344
2026-01-28 16:41:13,1.26,-0.222,-10.405
2026-01-28 16:41:13,1.284,-0.261,-10.376
2026-01-28 16:41:13,1.421,-0.208,-10.347
2026-01-28 16:41:13,1.477,-0.225,-10.396
2026-01-28 16:41:13,1.289,-0.278,-10.386
2026-01-28 16:41:13,1.133,-0.332,-10.437
2026-01-28 16:41:13,1.243,-0.347,-10.41
2026-01-28 16:41:13,1.267,-0.293,-10.273
2026-01-28 16:41:13,1.409,-0.281,-10.405
2026-01-28 16:41:13,1.475,-0.173,-10.479
2026-01-28 16:41:13,1.416,-0.215,-10.42
2026-01-28 16:41:13,1.194,-0.259,-10.41
2026-01-28 16:41:13,1.45,-0.212,-10.398
2026-01-28 16:41:13,1.23,-0.247,-10.439
2026-01-28 16:41:13,1.338,-0.308,-10.425
2026-01-28 16:41:13,1.411,-0.288,-10.388
2026-01-28 16:41:13,1.321,-0.232,-10.334
2026-01-28 16:41:13,1.257,-0.276,-10.483
2026-01-28 16:41:13,1.23,-0.291,-10.425
2026-01-28 16:41:13,1.414,-0.269,-10.322
2026-01-28 16:41:13,1.238,-0.303,-10.403
2026-01-28 16:41:13,1.372,-0.254,-10.359
2026-01-28 16:41:13,1.216,-0.317,-10.391
2026-01-28 16:41:13,1.504,-0.227,-10.376
2026-01-28 16:41:13,1.274,-0.332,-10.31
2026-01-28 16:41:13,1.377,-0.288,-10.435
2026-01-28 16:41:13,1.248,-0.303,-10.337
2026-01-28 16:41:13,1.328,-0.239,-10.393
2026-01-28 16:41:13,1.206,-0.342,-10.405
2026-01-28 16:41:13,1.331,-0.217,-10.33
2026-01-28 16:41:13,1.228,-0.383,-10.366
2026-01-28 16:41:13,1.372,-0.286,-10.425
2026-01-28 16:41:13,1.445,-0.225,-10.305
2026-01-28 16:41:13,1.145,-0.337,-10.449
2026-01-28 16:41:13,1.372,-0.276,-10.5
2026-01-28 16:41:13,1.401,-0.247,-10.354
2026-01-28 16:41:13,1.382,-0.276,-10.386
2026-01-28 16:41:13,1.235,-0.288,-10.366
2026-01-28 16:41:13,1.174,-0.256,-10.515
2026-01-28 16:41:13,1.44,-0.156,-10.405
2026-01-28 16:41:13,1.541,-0.247,-10.491
2026-01-28 16:41:13,1.428,-0.247,-10.447
2026-01-28 16:41:13,1.365,-0.266,-10.393
2026-01-28 16:41:13,1.387,-0.305,-10.354
2026-01-28 16:41:13,1.345,-0.261,-10.32
2026-01-28 16:41:13,1.267,-0.356,-10.322
2026-01-28 16:41:13,1.514,-0.261,-10.466
2026-01-28 16:41:13,1.348,-0.212,-10.398
2026-01-28 16:41:13,1.409,-0.242,-10.444
2026-01-28 16:41:13,1.328,-0.261,-10.461
2026-01-28 16:41:13,1.453,-0.237,-10.381
2026-01-28 16:41:13,1.377,-0.327,-10.376
2026-01-28 16:41:14,1.409,-0.251,-10.415
2026-01-28 16:41:14,1.321,-0.234,-10.447
2026-01-28 16:41:14,1.196,-0.317,-10.43
2026-01-28 16:41:14,1.421,-0.212,-10.298
2026-01-28 16:41:14,1.187,-0.32,-10.518
2026-01-28 16:41:14,1.443,-0.249,-10.398
2026-01-28 16:41:14,1.167,-0.327,-10.378
2026-01-28 16:41:14,1.311,-0.342,-10.356
2026-01-28 16:41:14,1.448,-0.183,-10.425
2026-01-28 16:41:14,1.25,-0.242,-10.415
2026-01-28 16:41:14,1.411,-0.234,-10.439
2026-01-28 16:41:14,1.265,-0.303,-10.461
2026-01-28 16:41:14,1.404,-0.212,-10.427
2026-01-28 16:41:14,1.401,-0.334,-10.396
2026-01-28 16:41:14,1.257,-0.288,-10.315
2026-01-28 16:41:14,1.294,-0.242,-10.447
2026-01-28 16:41:14,1.343,-0.308,-10.4
2026-01-28 16:41:14,1.428,-0.232,-10.378
2026-01-28 16:41:14,1.335,-0.21,-10.427
2026-01-28 16:41:14,1.475,-0.222,-10.405
2026-01-28 16:41:14,1.257,-0.281,-10.393
2026-01-28 16:41:14,1.257,-0.256,-10.393
2026-01-28 16:41:14,1.445,-0.176,-10.342
2026-01-28 16:41:14,1.411,-0.254,-10.356
2026-01-28 16:41:14,1.343,-0.288,-10.483
2026-01-28 16:41:14,1.443,-0.247,-10.452
2026-01-28 16:41:14,1.277,-0.327,-10.459
2026-01-28 16:41:14,1.333,-0.308,-10.474
2026-01-28 16:41:14,1.235,-0.288,-10.405
2026-01-28 16:41:14,1.182,-0.31,-10.393
2026-01-28 16:41:14,1.321,-0.312,-10.298
2026-01-28 16:41:14,1.35,-0.261,-10.413
2026-01-28 16:41:14,1.277,-0.256,-10.422
2026-01-28 16:41:14,1.265,-0.2,-10.339
2026-01-28 16:41:14,1.169,-0.269,-10.415
2026-01-28 16:41:14,1.345,-0.295,-10.403
2026-01-28 16:41:14,1.387,-0.325,-10.415
2026-01-28 16:41:14,1.208,-0.317,-10.366
2026-01-28 16:41:14,1.235,-0.278,-10.432
2026-01-28 16:41:14,1.194,-0.276,-10.417
2026-01-28 16:41:14,1.353,-0.247,-10.439
2026-01-28 16:41:14,1.277,-0.339,-10.425
2026-01-28 16:41:14,1.445,-0.244,-10.483
2026-01-28 16:41:14,1.265,-0.264,-10.386
2026-01-28 16:41:14,1.443,-0.244,-10.215
2026-01-28 16:41:14,1.257,-0.295,-10.417
2026-01-28 16:41:14,1.375,-0.225,-10.388
2026-01-28 16:41:14,1.128,-0.361,-10.3
2026-01-28 16:41:14,1.309,-0.273,-10.327
2026-01-28 16:41:14,1.313,-0.256,-10.381
2026-01-28 16:41:14,1.16,-0.295,-10.469
2026-01-28 16:41:14,1.218,-0.291,-10.381
2026-01-28 16:41:14,1.504,-0.217,-10.371
2026-01-28 16:41:14,1.179,-0.281,-10.469
2026-01-28 16:41:14,1.333,-0.266,-10.383
2026-01-28 16:41:14,1.262,-0.254,-10.293
2026-01-28 16:41:14,1.223,-0.369,-10.43
2026-01-28 16:41:14,1.479,-0.176,-10.403
2026-01-28 16:41:14,1.169,-0.325,-10.4
2026-01-28 16:41:14,1.218,-0.334,-10.396
2026-01-28 16:41:14,1.267,-0.356,-10.464
2026-01-28 16:41:14,1.421,-0.261,-10.41
2026-01-28 16:41:14,1.274,-0.291,-10.471
2026-01-28 16:41:14,1.562,-0.261,-10.378
2026-01-28 16:41:14,1.292,-0.352,-10.498
2026-01-28 16:41:14,1.179,-0.281,-10.356
2026-01-28 16:41:14,1.113,-0.342,-10.43
